"rt","stimulus","key_press","trial_type","trial_index","time_elapsed","internal_node_id","test_part","stim","subjectKey","src_subject_id","site","interview_date","session","sex","sample_group","interview_age","index","response"
"3607.4299999745563","<h1 style=""color:white;"">Welcome to the experiment!</h1><p style=""color:white;"">Press any key to continue.</p>","32","html-keyboard-response","0","3611","0.0-0.0","","","","","","","","","","","",""
"7162.889999977779","<h2 style=""color:white;"">In this task you will listen to a series of audio clips.</h2><h2 style=""color:white;"">The task is split into two test blocks, with a listening block in-between.</h2><p style=""color:white;"">Press any key to continue.</p>","32","html-keyboard-response","1","10777","0.0-1.0-0.0","","","","","","","","","","","",""
"7806.790000002366","<h2 style=""color:white;"">In the test blocks you will listen to a series of audio clips, and will have to indicate whether you heard speech in each clip.</h2><p style=""color:white;"">Press any key to continue.</p>","32","html-keyboard-response","2","18584","0.0-1.0-1.0","","","","","","","","","","","",""
"3583.985000033863","<h2 style=""color:white;"">In the listening block you just have to listen to several audio recordings. No response is required.</h2><p style=""color:white;"">Press any key to continue.</p>","32","html-keyboard-response","3","22170","0.0-1.0-2.0","","","","","","","","","","","",""
"10580.939999956172","<h2 style=""color:white;"">We will now begin the first test block.</h2> <p style=""color:white;"">Press any key to begin.</p>","32","html-keyboard-response","4","32752","0.0-1.0-3.0","","","","","","","","","","","",""
"null","<p id=""counter"" style=""text-align:center; color:white; font-size:30px"">+</p>","null","html-keyboard-response","5","33754","0.0-2.0-0.0","","","","","","","","","","","",""
"null","sounds/unintel_45/U_BKBQ0608.WAV","null","audio-keyboard-response","6","35746","0.0-2.0-1.0","","","","","","","","","","","",""
"5453.850000048988","<h1 style=""color:white;"">Could you hear speech in the audio?</h1><h3 style=""color:white;"">Press ""1"" for YES &nbsp&nbsp&nbsp&nbsp&nbsp&nbsp&nbsp&nbsp&nbsp&nbsp Press ""0"" for NO</h3>","48","html-keyboard-response","7","41202","0.0-2.0-2.0","unintel","608.wav","GUID","309901","30","must be formatted exactly thusly: MM/DD/YYYY","??","??","?? maybe 1=Clinical; 2=Healthy control","integer number of months","1","0"
"null","<p id=""counter"" style=""text-align:center; color:white; font-size:30px"">+</p>","null","html-keyboard-response","8","42205","0.0-2.0-0.1","","","","","","","","","","","",""
"null","sounds/unintel_45/U_BKBQ0115.WAV","null","audio-keyboard-response","9","43907","0.0-2.0-1.1","","","","","","","","","","","",""
"940.8549999934621","<h1 style=""color:white;"">Could you hear speech in the audio?</h1><h3 style=""color:white;"">Press ""1"" for YES &nbsp&nbsp&nbsp&nbsp&nbsp&nbsp&nbsp&nbsp&nbsp&nbsp Press ""0"" for NO</h3>","48","html-keyboard-response","10","44850","0.0-2.0-2.1","unintel","115.wav","GUID","309901","30","must be formatted exactly thusly: MM/DD/YYYY","??","??","?? maybe 1=Clinical; 2=Healthy control","integer number of months","2","0"
"null","<p id=""counter"" style=""text-align:center; color:white; font-size:30px"">+</p>","null","html-keyboard-response","11","45852","0.0-2.0-0.2","","","","","","","","","","","",""
"null","sounds/unintel_45/U_BKBQ0514.WAV","null","audio-keyboard-response","12","47756","0.0-2.0-1.2","","","","","","","","","","","",""
"635.29499998549","<h1 style=""color:white;"">Could you hear speech in the audio?</h1><h3 style=""color:white;"">Press ""1"" for YES &nbsp&nbsp&nbsp&nbsp&nbsp&nbsp&nbsp&nbsp&nbsp&nbsp Press ""0"" for NO</h3>","48","html-keyboard-response","13","48392","0.0-2.0-2.2","unintel","514.wav","GUID","309901","30","must be formatted exactly thusly: MM/DD/YYYY","??","??","?? maybe 1=Clinical; 2=Healthy control","integer number of months","3","0"
"null","<p id=""counter"" style=""text-align:center; color:white; font-size:30px"">+</p>","null","html-keyboard-response","14","49396","0.0-2.0-0.3","","","","","","","","","","","",""
"null","sounds/intel_45/I_BKBQ0214.wav","null","audio-keyboard-response","15","51288","0.0-2.0-1.3","","","","","","","","","","","",""
"775.7699999492615","<h1 style=""color:white;"">Could you hear speech in the audio?</h1><h3 style=""color:white;"">Press ""1"" for YES &nbsp&nbsp&nbsp&nbsp&nbsp&nbsp&nbsp&nbsp&nbsp&nbsp Press ""0"" for NO</h3>","49","html-keyboard-response","16","52065","0.0-2.0-2.3","intel","214.wav","GUID","309901","30","must be formatted exactly thusly: MM/DD/YYYY","??","??","?? maybe 1=Clinical; 2=Healthy control","integer number of months","4","1"
"null","<p id=""counter"" style=""text-align:center; color:white; font-size:30px"">+</p>","null","html-keyboard-response","17","53067","0.0-2.0-0.4","","","","","","","","","","","",""
"null","sounds/intel_45/I_BKBQ0307.wav","null","audio-keyboard-response","18","55456","0.0-2.0-1.4","","","","","","","","","","","",""
"176.8900000024587","<h1 style=""color:white;"">Could you hear speech in the audio?</h1><h3 style=""color:white;"">Press ""1"" for YES &nbsp&nbsp&nbsp&nbsp&nbsp&nbsp&nbsp&nbsp&nbsp&nbsp Press ""0"" for NO</h3>","49","html-keyboard-response","19","55634","0.0-2.0-2.4","intel","307.wav","GUID","309901","30","must be formatted exactly thusly: MM/DD/YYYY","??","??","?? maybe 1=Clinical; 2=Healthy control","integer number of months","5","1"
"null","<p id=""counter"" style=""text-align:center; color:white; font-size:30px"">+</p>","null","html-keyboard-response","20","56637","0.0-2.0-0.5","","","","","","","","","","","",""
"null","sounds/intel_45/I_BKBQ0202.wav","null","audio-keyboard-response","21","58457","0.0-2.0-1.5","","","","","","","","","","","",""
"126.54999998630956","<h1 style=""color:white;"">Could you hear speech in the audio?</h1><h3 style=""color:white;"">Press ""1"" for YES &nbsp&nbsp&nbsp&nbsp&nbsp&nbsp&nbsp&nbsp&nbsp&nbsp Press ""0"" for NO</h3>","49","html-keyboard-response","22","58585","0.0-2.0-2.5","intel","202.wav","GUID","309901","30","must be formatted exactly thusly: MM/DD/YYYY","??","??","?? maybe 1=Clinical; 2=Healthy control","integer number of months","6","1"
"null","<p id=""counter"" style=""text-align:center; color:white; font-size:30px"">+</p>","null","html-keyboard-response","23","59587","0.0-2.0-0.6","","","","","","","","","","","",""
"null","sounds/intel_45/I_BKBQ0413.wav","null","audio-keyboard-response","24","61976","0.0-2.0-1.6","","","","","","","","","","","",""
"975.8399999700487","<h1 style=""color:white;"">Could you hear speech in the audio?</h1><h3 style=""color:white;"">Press ""1"" for YES &nbsp&nbsp&nbsp&nbsp&nbsp&nbsp&nbsp&nbsp&nbsp&nbsp Press ""0"" for NO</h3>","49","html-keyboard-response","25","62952","0.0-2.0-2.6","intel","413.wav","GUID","309901","30","must be formatted exactly thusly: MM/DD/YYYY","??","??","?? maybe 1=Clinical; 2=Healthy control","integer number of months","7","1"
"null","<p id=""counter"" style=""text-align:center; color:white; font-size:30px"">+</p>","null","html-keyboard-response","26","63955","0.0-2.0-0.7","","","","","","","","","","","",""
"null","sounds/intel_45/I_BKBQ0514.wav","null","audio-keyboard-response","27","66266","0.0-2.0-1.7","","","","","","","","","","","",""
"750.8650000090711","<h1 style=""color:white;"">Could you hear speech in the audio?</h1><h3 style=""color:white;"">Press ""1"" for YES &nbsp&nbsp&nbsp&nbsp&nbsp&nbsp&nbsp&nbsp&nbsp&nbsp Press ""0"" for NO</h3>","49","html-keyboard-response","28","67018","0.0-2.0-2.7","intel","514.wav","GUID","309901","30","must be formatted exactly thusly: MM/DD/YYYY","??","??","?? maybe 1=Clinical; 2=Healthy control","integer number of months","8","1"
"null","<p id=""counter"" style=""text-align:center; color:white; font-size:30px"">+</p>","null","html-keyboard-response","29","68019","0.0-2.0-0.8","","","","","","","","","","","",""
"null","sounds/unintel_45/U_BKBQ0304.WAV","null","audio-keyboard-response","30","69726","0.0-2.0-1.8","","","","","","","","","","","",""
"761.5299999597482","<h1 style=""color:white;"">Could you hear speech in the audio?</h1><h3 style=""color:white;"">Press ""1"" for YES &nbsp&nbsp&nbsp&nbsp&nbsp&nbsp&nbsp&nbsp&nbsp&nbsp Press ""0"" for NO</h3>","48","html-keyboard-response","31","70488","0.0-2.0-2.8","unintel","304.wav","GUID","309901","30","must be formatted exactly thusly: MM/DD/YYYY","??","??","?? maybe 1=Clinical; 2=Healthy control","integer number of months","9","0"
"null","<p id=""counter"" style=""text-align:center; color:white; font-size:30px"">+</p>","null","html-keyboard-response","32","71490","0.0-2.0-0.9","","","","","","","","","","","",""
"null","sounds/intel_45/I_BKBQ0613.wav","null","audio-keyboard-response","33","73246","0.0-2.0-1.9","","","","","","","","","","","",""
"770.4249999951571","<h1 style=""color:white;"">Could you hear speech in the audio?</h1><h3 style=""color:white;"">Press ""1"" for YES &nbsp&nbsp&nbsp&nbsp&nbsp&nbsp&nbsp&nbsp&nbsp&nbsp Press ""0"" for NO</h3>","49","html-keyboard-response","34","74017","0.0-2.0-2.9","intel","613.wav","GUID","309901","30","must be formatted exactly thusly: MM/DD/YYYY","??","??","?? maybe 1=Clinical; 2=Healthy control","integer number of months","10","1"
"null","<p id=""counter"" style=""text-align:center; color:white; font-size:30px"">+</p>","null","html-keyboard-response","35","75020","0.0-2.0-0.10","","","","","","","","","","","",""
"null","sounds/unintel_45/U_BKBQ0205.WAV","null","audio-keyboard-response","36","76597","0.0-2.0-1.10","","","","","","","","","","","",""
"849.6199999935925","<h1 style=""color:white;"">Could you hear speech in the audio?</h1><h3 style=""color:white;"">Press ""1"" for YES &nbsp&nbsp&nbsp&nbsp&nbsp&nbsp&nbsp&nbsp&nbsp&nbsp Press ""0"" for NO</h3>","48","html-keyboard-response","37","77448","0.0-2.0-2.10","unintel","205.wav","GUID","309901","30","must be formatted exactly thusly: MM/DD/YYYY","??","??","?? maybe 1=Clinical; 2=Healthy control","integer number of months","11","0"
"null","<p id=""counter"" style=""text-align:center; color:white; font-size:30px"">+</p>","null","html-keyboard-response","38","78450","0.0-2.0-0.11","","","","","","","","","","","",""
"null","sounds/intel_45/I_BKBQ0309.wav","null","audio-keyboard-response","39","80569","0.0-2.0-1.11","","","","","","","","","","","",""
"541.9299999484792","<h1 style=""color:white;"">Could you hear speech in the audio?</h1><h3 style=""color:white;"">Press ""1"" for YES &nbsp&nbsp&nbsp&nbsp&nbsp&nbsp&nbsp&nbsp&nbsp&nbsp Press ""0"" for NO</h3>","49","html-keyboard-response","40","81113","0.0-2.0-2.11","intel","309.wav","GUID","309901","30","must be formatted exactly thusly: MM/DD/YYYY","??","??","?? maybe 1=Clinical; 2=Healthy control","integer number of months","12","1"
"null","<p id=""counter"" style=""text-align:center; color:white; font-size:30px"">+</p>","null","html-keyboard-response","41","82115","0.0-2.0-0.12","","","","","","","","","","","",""
"null","sounds/unintel_45/U_BKBQ0307.WAV","null","audio-keyboard-response","42","84087","0.0-2.0-1.12","","","","","","","","","","","",""
"432.05000000307336","<h1 style=""color:white;"">Could you hear speech in the audio?</h1><h3 style=""color:white;"">Press ""1"" for YES &nbsp&nbsp&nbsp&nbsp&nbsp&nbsp&nbsp&nbsp&nbsp&nbsp Press ""0"" for NO</h3>","49","html-keyboard-response","43","84521","0.0-2.0-2.12","unintel","307.wav","GUID","309901","30","must be formatted exactly thusly: MM/DD/YYYY","??","??","?? maybe 1=Clinical; 2=Healthy control","integer number of months","13","1"
"null","<p id=""counter"" style=""text-align:center; color:white; font-size:30px"">+</p>","null","html-keyboard-response","44","85523","0.0-2.0-0.13","","","","","","","","","","","",""
"null","sounds/intel_45/I_BKBQ0401.wav","null","audio-keyboard-response","45","87827","0.0-2.0-1.13","","","","","","","","","","","",""
"549.3849999620579","<h1 style=""color:white;"">Could you hear speech in the audio?</h1><h3 style=""color:white;"">Press ""1"" for YES &nbsp&nbsp&nbsp&nbsp&nbsp&nbsp&nbsp&nbsp&nbsp&nbsp Press ""0"" for NO</h3>","48","html-keyboard-response","46","88378","0.0-2.0-2.13","intel","401.wav","GUID","309901","30","must be formatted exactly thusly: MM/DD/YYYY","??","??","?? maybe 1=Clinical; 2=Healthy control","integer number of months","14","0"
"null","<p id=""counter"" style=""text-align:center; color:white; font-size:30px"">+</p>","null","html-keyboard-response","47","89380","0.0-2.0-0.14","","","","","","","","","","","",""
"null","sounds/intel_45/I_BKBQ0412.wav","null","audio-keyboard-response","48","91266","0.0-2.0-1.14","","","","","","","","","","","",""
"878.0200000037439","<h1 style=""color:white;"">Could you hear speech in the audio?</h1><h3 style=""color:white;"">Press ""1"" for YES &nbsp&nbsp&nbsp&nbsp&nbsp&nbsp&nbsp&nbsp&nbsp&nbsp Press ""0"" for NO</h3>","49","html-keyboard-response","49","92145","0.0-2.0-2.14","intel","412.wav","GUID","309901","30","must be formatted exactly thusly: MM/DD/YYYY","??","??","?? maybe 1=Clinical; 2=Healthy control","integer number of months","15","1"
"null","<p id=""counter"" style=""text-align:center; color:white; font-size:30px"">+</p>","null","html-keyboard-response","50","93147","0.0-2.0-0.15","","","","","","","","","","","",""
"null","sounds/unintel_45/U_BKBQ0613.WAV","null","audio-keyboard-response","51","94736","0.0-2.0-1.15","","","","","","","","","","","",""
"1703.284999995958","<h1 style=""color:white;"">Could you hear speech in the audio?</h1><h3 style=""color:white;"">Press ""1"" for YES &nbsp&nbsp&nbsp&nbsp&nbsp&nbsp&nbsp&nbsp&nbsp&nbsp Press ""0"" for NO</h3>","48","html-keyboard-response","52","96440","0.0-2.0-2.15","unintel","613.wav","GUID","309901","30","must be formatted exactly thusly: MM/DD/YYYY","??","??","?? maybe 1=Clinical; 2=Healthy control","integer number of months","16","0"
"null","<p id=""counter"" style=""text-align:center; color:white; font-size:30px"">+</p>","null","html-keyboard-response","53","97441","0.0-2.0-0.16","","","","","","","","","","","",""
"null","sounds/intel_45/I_BKBQ0511.wav","null","audio-keyboard-response","54","99406","0.0-2.0-1.16","","","","","","","","","","","",""
"411.435000016354","<h1 style=""color:white;"">Could you hear speech in the audio?</h1><h3 style=""color:white;"">Press ""1"" for YES &nbsp&nbsp&nbsp&nbsp&nbsp&nbsp&nbsp&nbsp&nbsp&nbsp Press ""0"" for NO</h3>","49","html-keyboard-response","55","99818","0.0-2.0-2.16","intel","511.wav","GUID","309901","30","must be formatted exactly thusly: MM/DD/YYYY","??","??","?? maybe 1=Clinical; 2=Healthy control","integer number of months","17","1"
"null","<p id=""counter"" style=""text-align:center; color:white; font-size:30px"">+</p>","null","html-keyboard-response","56","100819","0.0-2.0-0.17","","","","","","","","","","","",""
"null","sounds/unintel_45/U_BKBQ0209.WAV","null","audio-keyboard-response","57","102567","0.0-2.0-1.17","","","","","","","","","","","",""
"1496.2850000010803","<h1 style=""color:white;"">Could you hear speech in the audio?</h1><h3 style=""color:white;"">Press ""1"" for YES &nbsp&nbsp&nbsp&nbsp&nbsp&nbsp&nbsp&nbsp&nbsp&nbsp Press ""0"" for NO</h3>","48","html-keyboard-response","58","104065","0.0-2.0-2.17","unintel","209.wav","GUID","309901","30","must be formatted exactly thusly: MM/DD/YYYY","??","??","?? maybe 1=Clinical; 2=Healthy control","integer number of months","18","0"
"null","<p id=""counter"" style=""text-align:center; color:white; font-size:30px"">+</p>","null","html-keyboard-response","59","105066","0.0-2.0-0.18","","","","","","","","","","","",""
"null","sounds/intel_45/I_BKBQ0311.wav","null","audio-keyboard-response","60","107107","0.0-2.0-1.18","","","","","","","","","","","",""
"420.0950000085868","<h1 style=""color:white;"">Could you hear speech in the audio?</h1><h3 style=""color:white;"">Press ""1"" for YES &nbsp&nbsp&nbsp&nbsp&nbsp&nbsp&nbsp&nbsp&nbsp&nbsp Press ""0"" for NO</h3>","49","html-keyboard-response","61","107529","0.0-2.0-2.18","intel","311.wav","GUID","309901","30","must be formatted exactly thusly: MM/DD/YYYY","??","??","?? maybe 1=Clinical; 2=Healthy control","integer number of months","19","1"
"null","<p id=""counter"" style=""text-align:center; color:white; font-size:30px"">+</p>","null","html-keyboard-response","62","108531","0.0-2.0-0.19","","","","","","","","","","","",""
"null","sounds/unintel_45/U_BKBQ0103.WAV","null","audio-keyboard-response","63","110396","0.0-2.0-1.19","","","","","","","","","","","",""
"1141.26500004204","<h1 style=""color:white;"">Could you hear speech in the audio?</h1><h3 style=""color:white;"">Press ""1"" for YES &nbsp&nbsp&nbsp&nbsp&nbsp&nbsp&nbsp&nbsp&nbsp&nbsp Press ""0"" for NO</h3>","48","html-keyboard-response","64","111538","0.0-2.0-2.19","unintel","103.wav","GUID","309901","30","must be formatted exactly thusly: MM/DD/YYYY","??","??","?? maybe 1=Clinical; 2=Healthy control","integer number of months","20","0"
"null","<p id=""counter"" style=""text-align:center; color:white; font-size:30px"">+</p>","null","html-keyboard-response","65","112541","0.0-2.0-0.20","","","","","","","","","","","",""
"null","sounds/unintel_45/U_BKBQ0609.WAV","null","audio-keyboard-response","66","114256","0.0-2.0-1.20","","","","","","","","","","","",""
"143.61000002827495","<h1 style=""color:white;"">Could you hear speech in the audio?</h1><h3 style=""color:white;"">Press ""1"" for YES &nbsp&nbsp&nbsp&nbsp&nbsp&nbsp&nbsp&nbsp&nbsp&nbsp Press ""0"" for NO</h3>","49","html-keyboard-response","67","114400","0.0-2.0-2.20","unintel","609.wav","GUID","309901","30","must be formatted exactly thusly: MM/DD/YYYY","??","??","?? maybe 1=Clinical; 2=Healthy control","integer number of months","21","1"
"null","<p id=""counter"" style=""text-align:center; color:white; font-size:30px"">+</p>","null","html-keyboard-response","68","115402","0.0-2.0-0.21","","","","","","","","","","","",""
"null","sounds/intel_45/I_BKBQ0114.wav","null","audio-keyboard-response","69","117426","0.0-2.0-1.21","","","","","","","","","","","",""
"1637.8350000013597","<h1 style=""color:white;"">Could you hear speech in the audio?</h1><h3 style=""color:white;"">Press ""1"" for YES &nbsp&nbsp&nbsp&nbsp&nbsp&nbsp&nbsp&nbsp&nbsp&nbsp Press ""0"" for NO</h3>","49","html-keyboard-response","70","119065","0.0-2.0-2.21","intel","114.wav","GUID","309901","30","must be formatted exactly thusly: MM/DD/YYYY","??","??","?? maybe 1=Clinical; 2=Healthy control","integer number of months","22","1"
"null","<p id=""counter"" style=""text-align:center; color:white; font-size:30px"">+</p>","null","html-keyboard-response","71","120067","0.0-2.0-0.22","","","","","","","","","","","",""
"null","sounds/unintel_45/U_BKBQ0505.WAV","null","audio-keyboard-response","72","121716","0.0-2.0-1.22","","","","","","","","","","","",""
"1844.9700000346638","<h1 style=""color:white;"">Could you hear speech in the audio?</h1><h3 style=""color:white;"">Press ""1"" for YES &nbsp&nbsp&nbsp&nbsp&nbsp&nbsp&nbsp&nbsp&nbsp&nbsp Press ""0"" for NO</h3>","48","html-keyboard-response","73","123562","0.0-2.0-2.22","unintel","505.wav","GUID","309901","30","must be formatted exactly thusly: MM/DD/YYYY","??","??","?? maybe 1=Clinical; 2=Healthy control","integer number of months","23","0"
"null","<p id=""counter"" style=""text-align:center; color:white; font-size:30px"">+</p>","null","html-keyboard-response","74","124563","0.0-2.0-0.23","","","","","","","","","","","",""
"null","sounds/intel_45/I_BKBQ0608.wav","null","audio-keyboard-response","75","126528","0.0-2.0-1.23","","","","","","","","","","","",""
"1655.4800000158139","<h1 style=""color:white;"">Could you hear speech in the audio?</h1><h3 style=""color:white;"">Press ""1"" for YES &nbsp&nbsp&nbsp&nbsp&nbsp&nbsp&nbsp&nbsp&nbsp&nbsp Press ""0"" for NO</h3>","49","html-keyboard-response","76","128185","0.0-2.0-2.23","intel","608.wav","GUID","309901","30","must be formatted exactly thusly: MM/DD/YYYY","??","??","?? maybe 1=Clinical; 2=Healthy control","integer number of months","24","1"
"null","<p id=""counter"" style=""text-align:center; color:white; font-size:30px"">+</p>","null","html-keyboard-response","77","129187","0.0-2.0-0.24","","","","","","","","","","","",""
"null","sounds/unintel_45/U_BKBQ0401.WAV","null","audio-keyboard-response","78","131067","0.0-2.0-1.24","","","","","","","","","","","",""
"1003.8999999524094","<h1 style=""color:white;"">Could you hear speech in the audio?</h1><h3 style=""color:white;"">Press ""1"" for YES &nbsp&nbsp&nbsp&nbsp&nbsp&nbsp&nbsp&nbsp&nbsp&nbsp Press ""0"" for NO</h3>","48","html-keyboard-response","79","132072","0.0-2.0-2.24","unintel","401.wav","GUID","309901","30","must be formatted exactly thusly: MM/DD/YYYY","??","??","?? maybe 1=Clinical; 2=Healthy control","integer number of months","25","0"
"null","<p id=""counter"" style=""text-align:center; color:white; font-size:30px"">+</p>","null","html-keyboard-response","80","133078","0.0-2.0-0.25","","","","","","","","","","","",""
"null","sounds/unintel_45/U_BKBQ0306.WAV","null","audio-keyboard-response","81","134958","0.0-2.0-1.25","","","","","","","","","","","",""
"465.3550000512041","<h1 style=""color:white;"">Could you hear speech in the audio?</h1><h3 style=""color:white;"">Press ""1"" for YES &nbsp&nbsp&nbsp&nbsp&nbsp&nbsp&nbsp&nbsp&nbsp&nbsp Press ""0"" for NO</h3>","48","html-keyboard-response","82","135424","0.0-2.0-2.25","unintel","306.wav","GUID","309901","30","must be formatted exactly thusly: MM/DD/YYYY","??","??","?? maybe 1=Clinical; 2=Healthy control","integer number of months","26","0"
"null","<p id=""counter"" style=""text-align:center; color:white; font-size:30px"">+</p>","null","html-keyboard-response","83","136425","0.0-2.0-0.26","","","","","","","","","","","",""
"null","sounds/intel_45/I_BKBQ0312.wav","null","audio-keyboard-response","84","138466","0.0-2.0-1.26","","","","","","","","","","","",""
"629.445000027772","<h1 style=""color:white;"">Could you hear speech in the audio?</h1><h3 style=""color:white;"">Press ""1"" for YES &nbsp&nbsp&nbsp&nbsp&nbsp&nbsp&nbsp&nbsp&nbsp&nbsp Press ""0"" for NO</h3>","48","html-keyboard-response","85","139097","0.0-2.0-2.26","intel","312.wav","GUID","309901","30","must be formatted exactly thusly: MM/DD/YYYY","??","??","?? maybe 1=Clinical; 2=Healthy control","integer number of months","27","0"
"null","<p id=""counter"" style=""text-align:center; color:white; font-size:30px"">+</p>","null","html-keyboard-response","86","140099","0.0-2.0-0.27","","","","","","","","","","","",""
"null","sounds/unintel_45/U_BKBQ0312.WAV","null","audio-keyboard-response","87","141767","0.0-2.0-1.27","","","","","","","","","","","",""
"1070.9700000006706","<h1 style=""color:white;"">Could you hear speech in the audio?</h1><h3 style=""color:white;"">Press ""1"" for YES &nbsp&nbsp&nbsp&nbsp&nbsp&nbsp&nbsp&nbsp&nbsp&nbsp Press ""0"" for NO</h3>","48","html-keyboard-response","88","142839","0.0-2.0-2.27","unintel","312.wav","GUID","309901","30","must be formatted exactly thusly: MM/DD/YYYY","??","??","?? maybe 1=Clinical; 2=Healthy control","integer number of months","28","0"
"null","<p id=""counter"" style=""text-align:center; color:white; font-size:30px"">+</p>","null","html-keyboard-response","89","143840","0.0-2.0-0.28","","","","","","","","","","","",""
"null","sounds/intel_45/I_BKBQ0609.wav","null","audio-keyboard-response","90","145656","0.0-2.0-1.28","","","","","","","","","","","",""
"1383.5050000343472","<h1 style=""color:white;"">Could you hear speech in the audio?</h1><h3 style=""color:white;"">Press ""1"" for YES &nbsp&nbsp&nbsp&nbsp&nbsp&nbsp&nbsp&nbsp&nbsp&nbsp Press ""0"" for NO</h3>","49","html-keyboard-response","91","147040","0.0-2.0-2.28","intel","609.wav","GUID","309901","30","must be formatted exactly thusly: MM/DD/YYYY","??","??","?? maybe 1=Clinical; 2=Healthy control","integer number of months","29","1"
"null","<p id=""counter"" style=""text-align:center; color:white; font-size:30px"">+</p>","null","html-keyboard-response","92","148040","0.0-2.0-0.29","","","","","","","","","","","",""
"null","sounds/unintel_45/U_BKBQ0406.WAV","null","audio-keyboard-response","93","149596","0.0-2.0-1.29","","","","","","","","","","","",""
"370.9999999846332","<h1 style=""color:white;"">Could you hear speech in the audio?</h1><h3 style=""color:white;"">Press ""1"" for YES &nbsp&nbsp&nbsp&nbsp&nbsp&nbsp&nbsp&nbsp&nbsp&nbsp Press ""0"" for NO</h3>","48","html-keyboard-response","94","149967","0.0-2.0-2.29","unintel","406.wav","GUID","309901","30","must be formatted exactly thusly: MM/DD/YYYY","??","??","?? maybe 1=Clinical; 2=Healthy control","integer number of months","30","0"
"null","<p id=""counter"" style=""text-align:center; color:white; font-size:30px"">+</p>","null","html-keyboard-response","95","150969","0.0-2.0-0.30","","","","","","","","","","","",""
"null","sounds/intel_45/I_BKBQ0409.wav","null","audio-keyboard-response","96","152787","0.0-2.0-1.30","","","","","","","","","","","",""
"716.1500000511296","<h1 style=""color:white;"">Could you hear speech in the audio?</h1><h3 style=""color:white;"">Press ""1"" for YES &nbsp&nbsp&nbsp&nbsp&nbsp&nbsp&nbsp&nbsp&nbsp&nbsp Press ""0"" for NO</h3>","49","html-keyboard-response","97","153505","0.0-2.0-2.30","intel","409.wav","GUID","309901","30","must be formatted exactly thusly: MM/DD/YYYY","??","??","?? maybe 1=Clinical; 2=Healthy control","integer number of months","31","1"
"null","<p id=""counter"" style=""text-align:center; color:white; font-size:30px"">+</p>","null","html-keyboard-response","98","154507","0.0-2.0-0.31","","","","","","","","","","","",""
"null","sounds/unintel_45/U_BKBQ0315.WAV","null","audio-keyboard-response","99","156266","0.0-2.0-1.31","","","","","","","","","","","",""
"2871.289999980945","<h1 style=""color:white;"">Could you hear speech in the audio?</h1><h3 style=""color:white;"">Press ""1"" for YES &nbsp&nbsp&nbsp&nbsp&nbsp&nbsp&nbsp&nbsp&nbsp&nbsp Press ""0"" for NO</h3>","48","html-keyboard-response","100","159138","0.0-2.0-2.31","unintel","315.wav","GUID","309901","30","must be formatted exactly thusly: MM/DD/YYYY","??","??","?? maybe 1=Clinical; 2=Healthy control","integer number of months","32","0"
"null","<p id=""counter"" style=""text-align:center; color:white; font-size:30px"">+</p>","null","html-keyboard-response","101","160140","0.0-2.0-0.32","","","","","","","","","","","",""
"null","sounds/unintel_45/U_BKBQ0612.WAV","null","audio-keyboard-response","102","162048","0.0-2.0-1.32","","","","","","","","","","","",""
"1135.535000008531","<h1 style=""color:white;"">Could you hear speech in the audio?</h1><h3 style=""color:white;"">Press ""1"" for YES &nbsp&nbsp&nbsp&nbsp&nbsp&nbsp&nbsp&nbsp&nbsp&nbsp Press ""0"" for NO</h3>","48","html-keyboard-response","103","163184","0.0-2.0-2.32","unintel","612.wav","GUID","309901","30","must be formatted exactly thusly: MM/DD/YYYY","??","??","?? maybe 1=Clinical; 2=Healthy control","integer number of months","33","0"
"null","<p id=""counter"" style=""text-align:center; color:white; font-size:30px"">+</p>","null","html-keyboard-response","104","164186","0.0-2.0-0.33","","","","","","","","","","","",""
"null","sounds/intel_45/I_BKBQ0501.wav","null","audio-keyboard-response","105","166225","0.0-2.0-1.33","","","","","","","","","","","",""
"1581.7499999538995","<h1 style=""color:white;"">Could you hear speech in the audio?</h1><h3 style=""color:white;"">Press ""1"" for YES &nbsp&nbsp&nbsp&nbsp&nbsp&nbsp&nbsp&nbsp&nbsp&nbsp Press ""0"" for NO</h3>","49","html-keyboard-response","106","167807","0.0-2.0-2.33","intel","501.wav","GUID","309901","30","must be formatted exactly thusly: MM/DD/YYYY","??","??","?? maybe 1=Clinical; 2=Healthy control","integer number of months","34","1"
"null","<p id=""counter"" style=""text-align:center; color:white; font-size:30px"">+</p>","null","html-keyboard-response","107","168808","0.0-2.0-0.34","","","","","","","","","","","",""
"null","sounds/unintel_45/U_BKBQ0413.WAV","null","audio-keyboard-response","108","170677","0.0-2.0-1.34","","","","","","","","","","","",""
"1019.8600000003353","<h1 style=""color:white;"">Could you hear speech in the audio?</h1><h3 style=""color:white;"">Press ""1"" for YES &nbsp&nbsp&nbsp&nbsp&nbsp&nbsp&nbsp&nbsp&nbsp&nbsp Press ""0"" for NO</h3>","48","html-keyboard-response","109","171699","0.0-2.0-2.34","unintel","413.wav","GUID","309901","30","must be formatted exactly thusly: MM/DD/YYYY","??","??","?? maybe 1=Clinical; 2=Healthy control","integer number of months","35","0"
"null","<p id=""counter"" style=""text-align:center; color:white; font-size:30px"">+</p>","null","html-keyboard-response","110","172701","0.0-2.0-0.35","","","","","","","","","","","",""
"null","sounds/unintel_45/U_BKBQ0206.WAV","null","audio-keyboard-response","111","174377","0.0-2.0-1.35","","","","","","","","","","","",""
"525.6199999712408","<h1 style=""color:white;"">Could you hear speech in the audio?</h1><h3 style=""color:white;"">Press ""1"" for YES &nbsp&nbsp&nbsp&nbsp&nbsp&nbsp&nbsp&nbsp&nbsp&nbsp Press ""0"" for NO</h3>","48","html-keyboard-response","112","174903","0.0-2.0-2.35","unintel","206.wav","GUID","309901","30","must be formatted exactly thusly: MM/DD/YYYY","??","??","?? maybe 1=Clinical; 2=Healthy control","integer number of months","36","0"
"null","<p id=""counter"" style=""text-align:center; color:white; font-size:30px"">+</p>","null","html-keyboard-response","113","175906","0.0-2.0-0.36","","","","","","","","","","","",""
"null","sounds/unintel_45/U_BKBQ0511.WAV","null","audio-keyboard-response","114","177696","0.0-2.0-1.36","","","","","","","","","","","",""
"295.90500000631437","<h1 style=""color:white;"">Could you hear speech in the audio?</h1><h3 style=""color:white;"">Press ""1"" for YES &nbsp&nbsp&nbsp&nbsp&nbsp&nbsp&nbsp&nbsp&nbsp&nbsp Press ""0"" for NO</h3>","48","html-keyboard-response","115","177992","0.0-2.0-2.36","unintel","511.wav","GUID","309901","30","must be formatted exactly thusly: MM/DD/YYYY","??","??","?? maybe 1=Clinical; 2=Healthy control","integer number of months","37","0"
"null","<p id=""counter"" style=""text-align:center; color:white; font-size:30px"">+</p>","null","html-keyboard-response","116","178994","0.0-2.0-0.37","","","","","","","","","","","",""
"null","sounds/unintel_45/U_BKBQ0316.WAV","null","audio-keyboard-response","117","180677","0.0-2.0-1.37","","","","","","","","","","","",""
"458.57499999692664","<h1 style=""color:white;"">Could you hear speech in the audio?</h1><h3 style=""color:white;"">Press ""1"" for YES &nbsp&nbsp&nbsp&nbsp&nbsp&nbsp&nbsp&nbsp&nbsp&nbsp Press ""0"" for NO</h3>","48","html-keyboard-response","118","181137","0.0-2.0-2.37","unintel","316.wav","GUID","309901","30","must be formatted exactly thusly: MM/DD/YYYY","??","??","?? maybe 1=Clinical; 2=Healthy control","integer number of months","38","0"
"null","<p id=""counter"" style=""text-align:center; color:white; font-size:30px"">+</p>","null","html-keyboard-response","119","182138","0.0-2.0-0.38","","","","","","","","","","","",""
"null","sounds/intel_45/I_BKBQ0203.wav","null","audio-keyboard-response","120","184387","0.0-2.0-1.38","","","","","","","","","","","",""
"1413.330000010319","<h1 style=""color:white;"">Could you hear speech in the audio?</h1><h3 style=""color:white;"">Press ""1"" for YES &nbsp&nbsp&nbsp&nbsp&nbsp&nbsp&nbsp&nbsp&nbsp&nbsp Press ""0"" for NO</h3>","48","html-keyboard-response","121","185802","0.0-2.0-2.38","intel","203.wav","GUID","309901","30","must be formatted exactly thusly: MM/DD/YYYY","??","??","?? maybe 1=Clinical; 2=Healthy control","integer number of months","39","0"
"null","<p id=""counter"" style=""text-align:center; color:white; font-size:30px"">+</p>","null","html-keyboard-response","122","186803","0.0-2.0-0.39","","","","","","","","","","","",""
"null","sounds/unintel_45/U_BKBQ0311.WAV","null","audio-keyboard-response","123","188415","0.0-2.0-1.39","","","","","","","","","","","",""
"1168.230000010226","<h1 style=""color:white;"">Could you hear speech in the audio?</h1><h3 style=""color:white;"">Press ""1"" for YES &nbsp&nbsp&nbsp&nbsp&nbsp&nbsp&nbsp&nbsp&nbsp&nbsp Press ""0"" for NO</h3>","48","html-keyboard-response","124","189584","0.0-2.0-2.39","unintel","311.wav","GUID","309901","30","must be formatted exactly thusly: MM/DD/YYYY","??","??","?? maybe 1=Clinical; 2=Healthy control","integer number of months","40","0"
"null","<p id=""counter"" style=""text-align:center; color:white; font-size:30px"">+</p>","null","html-keyboard-response","125","190586","0.0-2.0-0.40","","","","","","","","","","","",""
"null","sounds/intel_45/I_BKBQ0110.wav","null","audio-keyboard-response","126","192206","0.0-2.0-1.40","","","","","","","","","","","",""
"2458.0199999618344","<h1 style=""color:white;"">Could you hear speech in the audio?</h1><h3 style=""color:white;"">Press ""1"" for YES &nbsp&nbsp&nbsp&nbsp&nbsp&nbsp&nbsp&nbsp&nbsp&nbsp Press ""0"" for NO</h3>","49","html-keyboard-response","127","194664","0.0-2.0-2.40","intel","110.wav","GUID","309901","30","must be formatted exactly thusly: MM/DD/YYYY","??","??","?? maybe 1=Clinical; 2=Healthy control","integer number of months","41","1"
"null","<p id=""counter"" style=""text-align:center; color:white; font-size:30px"">+</p>","null","html-keyboard-response","128","195666","0.0-2.0-0.41","","","","","","","","","","","",""
"null","sounds/intel_45/I_BKBQ0112.wav","null","audio-keyboard-response","129","197847","0.0-2.0-1.41","","","","","","","","","","","",""
"359.66000001644716","<h1 style=""color:white;"">Could you hear speech in the audio?</h1><h3 style=""color:white;"">Press ""1"" for YES &nbsp&nbsp&nbsp&nbsp&nbsp&nbsp&nbsp&nbsp&nbsp&nbsp Press ""0"" for NO</h3>","49","html-keyboard-response","130","198207","0.0-2.0-2.41","intel","112.wav","GUID","309901","30","must be formatted exactly thusly: MM/DD/YYYY","??","??","?? maybe 1=Clinical; 2=Healthy control","integer number of months","42","1"
"null","<p id=""counter"" style=""text-align:center; color:white; font-size:30px"">+</p>","null","html-keyboard-response","131","199209","0.0-2.0-0.42","","","","","","","","","","","",""
"null","sounds/intel_45/I_BKBQ0407.wav","null","audio-keyboard-response","132","200967","0.0-2.0-1.42","","","","","","","","","","","",""
"823.3099999488331","<h1 style=""color:white;"">Could you hear speech in the audio?</h1><h3 style=""color:white;"">Press ""1"" for YES &nbsp&nbsp&nbsp&nbsp&nbsp&nbsp&nbsp&nbsp&nbsp&nbsp Press ""0"" for NO</h3>","48","html-keyboard-response","133","201791","0.0-2.0-2.42","intel","407.wav","GUID","309901","30","must be formatted exactly thusly: MM/DD/YYYY","??","??","?? maybe 1=Clinical; 2=Healthy control","integer number of months","43","0"
"null","<p id=""counter"" style=""text-align:center; color:white; font-size:30px"">+</p>","null","html-keyboard-response","134","202793","0.0-2.0-0.43","","","","","","","","","","","",""
"null","sounds/unintel_45/U_BKBQ0501.WAV","null","audio-keyboard-response","135","204406","0.0-2.0-1.43","","","","","","","","","","","",""
"730.5950000300072","<h1 style=""color:white;"">Could you hear speech in the audio?</h1><h3 style=""color:white;"">Press ""1"" for YES &nbsp&nbsp&nbsp&nbsp&nbsp&nbsp&nbsp&nbsp&nbsp&nbsp Press ""0"" for NO</h3>","48","html-keyboard-response","136","205137","0.0-2.0-2.43","unintel","501.wav","GUID","309901","30","must be formatted exactly thusly: MM/DD/YYYY","??","??","?? maybe 1=Clinical; 2=Healthy control","integer number of months","44","0"
"null","<p id=""counter"" style=""text-align:center; color:white; font-size:30px"">+</p>","null","html-keyboard-response","137","206139","0.0-2.0-0.44","","","","","","","","","","","",""
"null","sounds/unintel_45/U_BKBQ0607.WAV","null","audio-keyboard-response","138","207937","0.0-2.0-1.44","","","","","","","","","","","",""
"431.429999996908","<h1 style=""color:white;"">Could you hear speech in the audio?</h1><h3 style=""color:white;"">Press ""1"" for YES &nbsp&nbsp&nbsp&nbsp&nbsp&nbsp&nbsp&nbsp&nbsp&nbsp Press ""0"" for NO</h3>","48","html-keyboard-response","139","208369","0.0-2.0-2.44","unintel","607.wav","GUID","309901","30","must be formatted exactly thusly: MM/DD/YYYY","??","??","?? maybe 1=Clinical; 2=Healthy control","integer number of months","45","0"
"null","<h2 style=""color:white;"">You will now hear some short sentences.</h2><p style=""color:white;"">You do not need to respond, just listen.</p>","null","html-keyboard-response","140","218372","0.0-3.0","","","","","","","","","","","",""
"null","sounds/unaltered_45/BKBQ2011.WAV","null","audio-keyboard-response","141","219756","0.0-4.0-0.0","unaltered","2011.wav","GUID","309901","30","must be formatted exactly thusly: MM/DD/YYYY","??","??","?? maybe 1=Clinical; 2=Healthy control","integer number of months","45","null"
"null","<p id=""counter"" style=""text-align:center; color:white; font-size:30px"">+</p>","null","html-keyboard-response","142","220257","0.0-4.0-1.0","","","","","","","","","","","",""
"null","sounds/unaltered_45/BKBQ2116.WAV","null","audio-keyboard-response","143","221435","0.0-4.0-0.1","unaltered","2116.wav","GUID","309901","30","must be formatted exactly thusly: MM/DD/YYYY","??","??","?? maybe 1=Clinical; 2=Healthy control","integer number of months","46","null"
"null","<p id=""counter"" style=""text-align:center; color:white; font-size:30px"">+</p>","null","html-keyboard-response","144","221938","0.0-4.0-1.1","","","","","","","","","","","",""
"null","sounds/unaltered_45/BKBQ2114.WAV","null","audio-keyboard-response","145","223557","0.0-4.0-0.2","unaltered","2114.wav","GUID","309901","30","must be formatted exactly thusly: MM/DD/YYYY","??","??","?? maybe 1=Clinical; 2=Healthy control","integer number of months","47","null"
"null","<p id=""counter"" style=""text-align:center; color:white; font-size:30px"">+</p>","null","html-keyboard-response","146","224060","0.0-4.0-1.2","","","","","","","","","","","",""
"null","sounds/unaltered_45/BKBQ2004.WAV","null","audio-keyboard-response","147","225296","0.0-4.0-0.3","unaltered","2004.wav","GUID","309901","30","must be formatted exactly thusly: MM/DD/YYYY","??","??","?? maybe 1=Clinical; 2=Healthy control","integer number of months","48","null"
"null","<p id=""counter"" style=""text-align:center; color:white; font-size:30px"">+</p>","null","html-keyboard-response","148","225797","0.0-4.0-1.3","","","","","","","","","","","",""
"null","sounds/unaltered_45/BKBQ1915.WAV","null","audio-keyboard-response","149","227557","0.0-4.0-0.4","unaltered","1915.wav","GUID","309901","30","must be formatted exactly thusly: MM/DD/YYYY","??","??","?? maybe 1=Clinical; 2=Healthy control","integer number of months","49","null"
"null","<p id=""counter"" style=""text-align:center; color:white; font-size:30px"">+</p>","null","html-keyboard-response","150","228060","0.0-4.0-1.4","","","","","","","","","","","",""
"null","sounds/unaltered_45/BKBQ1905.WAV","null","audio-keyboard-response","151","229406","0.0-4.0-0.5","unaltered","1905.wav","GUID","309901","30","must be formatted exactly thusly: MM/DD/YYYY","??","??","?? maybe 1=Clinical; 2=Healthy control","integer number of months","50","null"
"null","<p id=""counter"" style=""text-align:center; color:white; font-size:30px"">+</p>","null","html-keyboard-response","152","229907","0.0-4.0-1.5","","","","","","","","","","","",""
"null","sounds/unaltered_45/BKBQ2014.WAV","null","audio-keyboard-response","153","231388","0.0-4.0-0.6","unaltered","2014.wav","GUID","309901","30","must be formatted exactly thusly: MM/DD/YYYY","??","??","?? maybe 1=Clinical; 2=Healthy control","integer number of months","51","null"
"null","<p id=""counter"" style=""text-align:center; color:white; font-size:30px"">+</p>","null","html-keyboard-response","154","231890","0.0-4.0-1.6","","","","","","","","","","","",""
"null","sounds/unaltered_45/BKBQ1704.WAV","null","audio-keyboard-response","155","233186","0.0-4.0-0.7","unaltered","1704.wav","GUID","309901","30","must be formatted exactly thusly: MM/DD/YYYY","??","??","?? maybe 1=Clinical; 2=Healthy control","integer number of months","52","null"
"null","<p id=""counter"" style=""text-align:center; color:white; font-size:30px"">+</p>","null","html-keyboard-response","156","233687","0.0-4.0-1.7","","","","","","","","","","","",""
"null","sounds/unaltered_45/BKBQ0505.WAV","null","audio-keyboard-response","157","235216","0.0-4.0-0.8","unaltered","0505.wav","GUID","309901","30","must be formatted exactly thusly: MM/DD/YYYY","??","??","?? maybe 1=Clinical; 2=Healthy control","integer number of months","53","null"
"null","<p id=""counter"" style=""text-align:center; color:white; font-size:30px"">+</p>","null","html-keyboard-response","158","235717","0.0-4.0-1.8","","","","","","","","","","","",""
"null","sounds/unaltered_45/BKBQ1815.WAV","null","audio-keyboard-response","159","237256","0.0-4.0-0.9","unaltered","1815.wav","GUID","309901","30","must be formatted exactly thusly: MM/DD/YYYY","??","??","?? maybe 1=Clinical; 2=Healthy control","integer number of months","54","null"
"null","<p id=""counter"" style=""text-align:center; color:white; font-size:30px"">+</p>","null","html-keyboard-response","160","237758","0.0-4.0-1.9","","","","","","","","","","","",""
"null","sounds/unaltered_45/BKBQ1910.WAV","null","audio-keyboard-response","161","239257","0.0-4.0-0.10","unaltered","1910.wav","GUID","309901","30","must be formatted exactly thusly: MM/DD/YYYY","??","??","?? maybe 1=Clinical; 2=Healthy control","integer number of months","55","null"
"null","<p id=""counter"" style=""text-align:center; color:white; font-size:30px"">+</p>","null","html-keyboard-response","162","239759","0.0-4.0-1.10","","","","","","","","","","","",""
"null","sounds/unaltered_45/BKBQ1714.WAV","null","audio-keyboard-response","163","241108","0.0-4.0-0.11","unaltered","1714.wav","GUID","309901","30","must be formatted exactly thusly: MM/DD/YYYY","??","??","?? maybe 1=Clinical; 2=Healthy control","integer number of months","56","null"
"null","<p id=""counter"" style=""text-align:center; color:white; font-size:30px"">+</p>","null","html-keyboard-response","164","241609","0.0-4.0-1.11","","","","","","","","","","","",""
"null","sounds/unaltered_45/BKBQ2105.WAV","null","audio-keyboard-response","165","243027","0.0-4.0-0.12","unaltered","2105.wav","GUID","309901","30","must be formatted exactly thusly: MM/DD/YYYY","??","??","?? maybe 1=Clinical; 2=Healthy control","integer number of months","57","null"
"null","<p id=""counter"" style=""text-align:center; color:white; font-size:30px"">+</p>","null","html-keyboard-response","166","243529","0.0-4.0-1.12","","","","","","","","","","","",""
"null","sounds/unaltered_45/BKBQ1707.WAV","null","audio-keyboard-response","167","244877","0.0-4.0-0.13","unaltered","1707.wav","GUID","309901","30","must be formatted exactly thusly: MM/DD/YYYY","??","??","?? maybe 1=Clinical; 2=Healthy control","integer number of months","58","null"
"null","<p id=""counter"" style=""text-align:center; color:white; font-size:30px"">+</p>","null","html-keyboard-response","168","245378","0.0-4.0-1.13","","","","","","","","","","","",""
"null","sounds/unaltered_45/BKBQ0215.WAV","null","audio-keyboard-response","169","246588","0.0-4.0-0.14","unaltered","0215.wav","GUID","309901","30","must be formatted exactly thusly: MM/DD/YYYY","??","??","?? maybe 1=Clinical; 2=Healthy control","integer number of months","59","null"
"null","<p id=""counter"" style=""text-align:center; color:white; font-size:30px"">+</p>","null","html-keyboard-response","170","247090","0.0-4.0-1.14","","","","","","","","","","","",""
"null","sounds/unaltered_45/BKBQ1807.WAV","null","audio-keyboard-response","171","248627","0.0-4.0-0.15","unaltered","1807.wav","GUID","309901","30","must be formatted exactly thusly: MM/DD/YYYY","??","??","?? maybe 1=Clinical; 2=Healthy control","integer number of months","60","null"
"null","<p id=""counter"" style=""text-align:center; color:white; font-size:30px"">+</p>","null","html-keyboard-response","172","249128","0.0-4.0-1.15","","","","","","","","","","","",""
"null","sounds/unaltered_45/BKBQ0609.WAV","null","audio-keyboard-response","173","250476","0.0-4.0-0.16","unaltered","0609.wav","GUID","309901","30","must be formatted exactly thusly: MM/DD/YYYY","??","??","?? maybe 1=Clinical; 2=Healthy control","integer number of months","61","null"
"null","<p id=""counter"" style=""text-align:center; color:white; font-size:30px"">+</p>","null","html-keyboard-response","174","250978","0.0-4.0-1.16","","","","","","","","","","","",""
"null","sounds/unaltered_45/BKBQ0607.WAV","null","audio-keyboard-response","175","252726","0.0-4.0-0.17","unaltered","0607.wav","GUID","309901","30","must be formatted exactly thusly: MM/DD/YYYY","??","??","?? maybe 1=Clinical; 2=Healthy control","integer number of months","62","null"
"null","<p id=""counter"" style=""text-align:center; color:white; font-size:30px"">+</p>","null","html-keyboard-response","176","253227","0.0-4.0-1.17","","","","","","","","","","","",""
"null","sounds/unaltered_45/BKBQ0114.WAV","null","audio-keyboard-response","177","254725","0.0-4.0-0.18","unaltered","0114.wav","GUID","309901","30","must be formatted exactly thusly: MM/DD/YYYY","??","??","?? maybe 1=Clinical; 2=Healthy control","integer number of months","63","null"
"null","<p id=""counter"" style=""text-align:center; color:white; font-size:30px"">+</p>","null","html-keyboard-response","178","255227","0.0-4.0-1.18","","","","","","","","","","","",""
"null","sounds/unaltered_45/BKBQ0201.WAV","null","audio-keyboard-response","179","256668","0.0-4.0-0.19","unaltered","0201.wav","GUID","309901","30","must be formatted exactly thusly: MM/DD/YYYY","??","??","?? maybe 1=Clinical; 2=Healthy control","integer number of months","64","null"
"null","<p id=""counter"" style=""text-align:center; color:white; font-size:30px"">+</p>","null","html-keyboard-response","180","257170","0.0-4.0-1.19","","","","","","","","","","","",""
"null","sounds/unaltered_45/BKBQ0513.WAV","null","audio-keyboard-response","181","258426","0.0-4.0-0.20","unaltered","0513.wav","GUID","309901","30","must be formatted exactly thusly: MM/DD/YYYY","??","??","?? maybe 1=Clinical; 2=Healthy control","integer number of months","65","null"
"null","<p id=""counter"" style=""text-align:center; color:white; font-size:30px"">+</p>","null","html-keyboard-response","182","258927","0.0-4.0-1.20","","","","","","","","","","","",""
"null","sounds/unaltered_45/BKBQ0412.WAV","null","audio-keyboard-response","183","260347","0.0-4.0-0.21","unaltered","0412.wav","GUID","309901","30","must be formatted exactly thusly: MM/DD/YYYY","??","??","?? maybe 1=Clinical; 2=Healthy control","integer number of months","66","null"
"null","<p id=""counter"" style=""text-align:center; color:white; font-size:30px"">+</p>","null","html-keyboard-response","184","260849","0.0-4.0-1.21","","","","","","","","","","","",""
"null","sounds/unaltered_45/BKBQ0411.WAV","null","audio-keyboard-response","185","262246","0.0-4.0-0.22","unaltered","0411.wav","GUID","309901","30","must be formatted exactly thusly: MM/DD/YYYY","??","??","?? maybe 1=Clinical; 2=Healthy control","integer number of months","67","null"
"null","<p id=""counter"" style=""text-align:center; color:white; font-size:30px"">+</p>","null","html-keyboard-response","186","262747","0.0-4.0-1.22","","","","","","","","","","","",""
"null","sounds/unaltered_45/BKBQ2013.WAV","null","audio-keyboard-response","187","264197","0.0-4.0-0.23","unaltered","2013.wav","GUID","309901","30","must be formatted exactly thusly: MM/DD/YYYY","??","??","?? maybe 1=Clinical; 2=Healthy control","integer number of months","68","null"
"null","<p id=""counter"" style=""text-align:center; color:white; font-size:30px"">+</p>","null","html-keyboard-response","188","264700","0.0-4.0-1.23","","","","","","","","","","","",""
"null","sounds/unaltered_45/BKBQ1711.WAV","null","audio-keyboard-response","189","266127","0.0-4.0-0.24","unaltered","1711.wav","GUID","309901","30","must be formatted exactly thusly: MM/DD/YYYY","??","??","?? maybe 1=Clinical; 2=Healthy control","integer number of months","69","null"
"null","<p id=""counter"" style=""text-align:center; color:white; font-size:30px"">+</p>","null","html-keyboard-response","190","266629","0.0-4.0-1.24","","","","","","","","","","","",""
"null","sounds/unaltered_45/BKBQ1913.WAV","null","audio-keyboard-response","191","267867","0.0-4.0-0.25","unaltered","1913.wav","GUID","309901","30","must be formatted exactly thusly: MM/DD/YYYY","??","??","?? maybe 1=Clinical; 2=Healthy control","integer number of months","70","null"
"null","<p id=""counter"" style=""text-align:center; color:white; font-size:30px"">+</p>","null","html-keyboard-response","192","268369","0.0-4.0-1.25","","","","","","","","","","","",""
"null","sounds/unaltered_45/BKBQ1801.WAV","null","audio-keyboard-response","193","269927","0.0-4.0-0.26","unaltered","1801.wav","GUID","309901","30","must be formatted exactly thusly: MM/DD/YYYY","??","??","?? maybe 1=Clinical; 2=Healthy control","integer number of months","71","null"
"null","<p id=""counter"" style=""text-align:center; color:white; font-size:30px"">+</p>","null","html-keyboard-response","194","270429","0.0-4.0-1.26","","","","","","","","","","","",""
"null","sounds/unaltered_45/BKBQ1916.WAV","null","audio-keyboard-response","195","272177","0.0-4.0-0.27","unaltered","1916.wav","GUID","309901","30","must be formatted exactly thusly: MM/DD/YYYY","??","??","?? maybe 1=Clinical; 2=Healthy control","integer number of months","72","null"
"null","<p id=""counter"" style=""text-align:center; color:white; font-size:30px"">+</p>","null","html-keyboard-response","196","272679","0.0-4.0-1.27","","","","","","","","","","","",""
"null","sounds/unaltered_45/BKBQ2108.WAV","null","audio-keyboard-response","197","274256","0.0-4.0-0.28","unaltered","2108.wav","GUID","309901","30","must be formatted exactly thusly: MM/DD/YYYY","??","??","?? maybe 1=Clinical; 2=Healthy control","integer number of months","73","null"
"null","<p id=""counter"" style=""text-align:center; color:white; font-size:30px"">+</p>","null","html-keyboard-response","198","274757","0.0-4.0-1.28","","","","","","","","","","","",""
"null","sounds/unaltered_45/BKBQ0203.WAV","null","audio-keyboard-response","199","276416","0.0-4.0-0.29","unaltered","0203.wav","GUID","309901","30","must be formatted exactly thusly: MM/DD/YYYY","??","??","?? maybe 1=Clinical; 2=Healthy control","integer number of months","74","null"
"null","<p id=""counter"" style=""text-align:center; color:white; font-size:30px"">+</p>","null","html-keyboard-response","200","276917","0.0-4.0-1.29","","","","","","","","","","","",""
"null","sounds/unaltered_45/BKBQ1912.WAV","null","audio-keyboard-response","201","278898","0.0-4.0-0.30","unaltered","1912.wav","GUID","309901","30","must be formatted exactly thusly: MM/DD/YYYY","??","??","?? maybe 1=Clinical; 2=Healthy control","integer number of months","75","null"
"null","<p id=""counter"" style=""text-align:center; color:white; font-size:30px"">+</p>","null","html-keyboard-response","202","279399","0.0-4.0-1.30","","","","","","","","","","","",""
"null","sounds/unaltered_45/BKBQ0214.WAV","null","audio-keyboard-response","203","280827","0.0-4.0-0.31","unaltered","0214.wav","GUID","309901","30","must be formatted exactly thusly: MM/DD/YYYY","??","??","?? maybe 1=Clinical; 2=Healthy control","integer number of months","76","null"
"null","<p id=""counter"" style=""text-align:center; color:white; font-size:30px"">+</p>","null","html-keyboard-response","204","281329","0.0-4.0-1.31","","","","","","","","","","","",""
"null","sounds/unaltered_45/BKBQ2109.WAV","null","audio-keyboard-response","205","283067","0.0-4.0-0.32","unaltered","2109.wav","GUID","309901","30","must be formatted exactly thusly: MM/DD/YYYY","??","??","?? maybe 1=Clinical; 2=Healthy control","integer number of months","77","null"
"null","<p id=""counter"" style=""text-align:center; color:white; font-size:30px"">+</p>","null","html-keyboard-response","206","283568","0.0-4.0-1.32","","","","","","","","","","","",""
"null","sounds/unaltered_45/BKBQ2106.WAV","null","audio-keyboard-response","207","284937","0.0-4.0-0.33","unaltered","2106.wav","GUID","309901","30","must be formatted exactly thusly: MM/DD/YYYY","??","??","?? maybe 1=Clinical; 2=Healthy control","integer number of months","78","null"
"null","<p id=""counter"" style=""text-align:center; color:white; font-size:30px"">+</p>","null","html-keyboard-response","208","285439","0.0-4.0-1.33","","","","","","","","","","","",""
"null","sounds/unaltered_45/BKBQ0102.WAV","null","audio-keyboard-response","209","286907","0.0-4.0-0.34","unaltered","0102.wav","GUID","309901","30","must be formatted exactly thusly: MM/DD/YYYY","??","??","?? maybe 1=Clinical; 2=Healthy control","integer number of months","79","null"
"null","<p id=""counter"" style=""text-align:center; color:white; font-size:30px"">+</p>","null","html-keyboard-response","210","287408","0.0-4.0-1.34","","","","","","","","","","","",""
"null","sounds/unaltered_45/BKBQ0311.WAV","null","audio-keyboard-response","211","288938","0.0-4.0-0.35","unaltered","0311.wav","GUID","309901","30","must be formatted exactly thusly: MM/DD/YYYY","??","??","?? maybe 1=Clinical; 2=Healthy control","integer number of months","80","null"
"null","<p id=""counter"" style=""text-align:center; color:white; font-size:30px"">+</p>","null","html-keyboard-response","212","289441","0.0-4.0-1.35","","","","","","","","","","","",""
"null","sounds/unaltered_45/BKBQ0501.WAV","null","audio-keyboard-response","213","290968","0.0-4.0-0.36","unaltered","0501.wav","GUID","309901","30","must be formatted exactly thusly: MM/DD/YYYY","??","??","?? maybe 1=Clinical; 2=Healthy control","integer number of months","81","null"
"null","<p id=""counter"" style=""text-align:center; color:white; font-size:30px"">+</p>","null","html-keyboard-response","214","291470","0.0-4.0-1.36","","","","","","","","","","","",""
"null","sounds/unaltered_45/BKBQ0613.WAV","null","audio-keyboard-response","215","292808","0.0-4.0-0.37","unaltered","0613.wav","GUID","309901","30","must be formatted exactly thusly: MM/DD/YYYY","??","??","?? maybe 1=Clinical; 2=Healthy control","integer number of months","82","null"
"null","<p id=""counter"" style=""text-align:center; color:white; font-size:30px"">+</p>","null","html-keyboard-response","216","293309","0.0-4.0-1.37","","","","","","","","","","","",""
"null","sounds/unaltered_45/BKBQ0306.WAV","null","audio-keyboard-response","217","294678","0.0-4.0-0.38","unaltered","0306.wav","GUID","309901","30","must be formatted exactly thusly: MM/DD/YYYY","??","??","?? maybe 1=Clinical; 2=Healthy control","integer number of months","83","null"
"null","<p id=""counter"" style=""text-align:center; color:white; font-size:30px"">+</p>","null","html-keyboard-response","218","295179","0.0-4.0-1.38","","","","","","","","","","","",""
"null","sounds/unaltered_45/BKBQ0316.WAV","null","audio-keyboard-response","219","296808","0.0-4.0-0.39","unaltered","0316.wav","GUID","309901","30","must be formatted exactly thusly: MM/DD/YYYY","??","??","?? maybe 1=Clinical; 2=Healthy control","integer number of months","84","null"
"null","<p id=""counter"" style=""text-align:center; color:white; font-size:30px"">+</p>","null","html-keyboard-response","220","297310","0.0-4.0-1.39","","","","","","","","","","","",""
"null","sounds/unaltered_45/BKBQ0514.WAV","null","audio-keyboard-response","221","299018","0.0-4.0-0.40","unaltered","0514.wav","GUID","309901","30","must be formatted exactly thusly: MM/DD/YYYY","??","??","?? maybe 1=Clinical; 2=Healthy control","integer number of months","85","null"
"null","<p id=""counter"" style=""text-align:center; color:white; font-size:30px"">+</p>","null","html-keyboard-response","222","299519","0.0-4.0-1.40","","","","","","","","","","","",""
"null","sounds/unaltered_45/BKBQ0511.WAV","null","audio-keyboard-response","223","300977","0.0-4.0-0.41","unaltered","0511.wav","GUID","309901","30","must be formatted exactly thusly: MM/DD/YYYY","??","??","?? maybe 1=Clinical; 2=Healthy control","integer number of months","86","null"
"null","<p id=""counter"" style=""text-align:center; color:white; font-size:30px"">+</p>","null","html-keyboard-response","224","301478","0.0-4.0-1.41","","","","","","","","","","","",""
"null","sounds/unaltered_45/BKBQ1808.WAV","null","audio-keyboard-response","225","302848","0.0-4.0-0.42","unaltered","1808.wav","GUID","309901","30","must be formatted exactly thusly: MM/DD/YYYY","??","??","?? maybe 1=Clinical; 2=Healthy control","integer number of months","87","null"
"null","<p id=""counter"" style=""text-align:center; color:white; font-size:30px"">+</p>","null","html-keyboard-response","226","303350","0.0-4.0-1.42","","","","","","","","","","","",""
"null","sounds/unaltered_45/BKBQ1803.WAV","null","audio-keyboard-response","227","304776","0.0-4.0-0.43","unaltered","1803.wav","GUID","309901","30","must be formatted exactly thusly: MM/DD/YYYY","??","??","?? maybe 1=Clinical; 2=Healthy control","integer number of months","88","null"
"null","<p id=""counter"" style=""text-align:center; color:white; font-size:30px"">+</p>","null","html-keyboard-response","228","305278","0.0-4.0-1.43","","","","","","","","","","","",""
"null","sounds/unaltered_45/BKBQ0205.WAV","null","audio-keyboard-response","229","306668","0.0-4.0-0.44","unaltered","0205.wav","GUID","309901","30","must be formatted exactly thusly: MM/DD/YYYY","??","??","?? maybe 1=Clinical; 2=Healthy control","integer number of months","89","null"
"null","<p id=""counter"" style=""text-align:center; color:white; font-size:30px"">+</p>","null","html-keyboard-response","230","307169","0.0-4.0-1.44","","","","","","","","","","","",""
"null","sounds/unaltered_45/BKBQ2111.WAV","null","audio-keyboard-response","231","308557","0.0-4.0-0.45","unaltered","2111.wav","GUID","309901","30","must be formatted exactly thusly: MM/DD/YYYY","??","??","?? maybe 1=Clinical; 2=Healthy control","integer number of months","90","null"
"null","<p id=""counter"" style=""text-align:center; color:white; font-size:30px"">+</p>","null","html-keyboard-response","232","309059","0.0-4.0-1.45","","","","","","","","","","","",""
"null","sounds/unaltered_45/BKBQ2102.WAV","null","audio-keyboard-response","233","310707","0.0-4.0-0.46","unaltered","2102.wav","GUID","309901","30","must be formatted exactly thusly: MM/DD/YYYY","??","??","?? maybe 1=Clinical; 2=Healthy control","integer number of months","91","null"
"null","<p id=""counter"" style=""text-align:center; color:white; font-size:30px"">+</p>","null","html-keyboard-response","234","311209","0.0-4.0-1.46","","","","","","","","","","","",""
"null","sounds/unaltered_45/BKBQ0112.WAV","null","audio-keyboard-response","235","312847","0.0-4.0-0.47","unaltered","0112.wav","GUID","309901","30","must be formatted exactly thusly: MM/DD/YYYY","??","??","?? maybe 1=Clinical; 2=Healthy control","integer number of months","92","null"
"null","<p id=""counter"" style=""text-align:center; color:white; font-size:30px"">+</p>","null","html-keyboard-response","236","313348","0.0-4.0-1.47","","","","","","","","","","","",""
"null","sounds/unaltered_45/BKBQ2103.WAV","null","audio-keyboard-response","237","314878","0.0-4.0-0.48","unaltered","2103.wav","GUID","309901","30","must be formatted exactly thusly: MM/DD/YYYY","??","??","?? maybe 1=Clinical; 2=Healthy control","integer number of months","93","null"
"null","<p id=""counter"" style=""text-align:center; color:white; font-size:30px"">+</p>","null","html-keyboard-response","238","315380","0.0-4.0-1.48","","","","","","","","","","","",""
"null","sounds/unaltered_45/BKBQ0106.WAV","null","audio-keyboard-response","239","316808","0.0-4.0-0.49","unaltered","0106.wav","GUID","309901","30","must be formatted exactly thusly: MM/DD/YYYY","??","??","?? maybe 1=Clinical; 2=Healthy control","integer number of months","94","null"
"null","<p id=""counter"" style=""text-align:center; color:white; font-size:30px"">+</p>","null","html-keyboard-response","240","317310","0.0-4.0-1.49","","","","","","","","","","","",""
"null","sounds/unaltered_45/BKBQ0103.WAV","null","audio-keyboard-response","241","318848","0.0-4.0-0.50","unaltered","0103.wav","GUID","309901","30","must be formatted exactly thusly: MM/DD/YYYY","??","??","?? maybe 1=Clinical; 2=Healthy control","integer number of months","95","null"
"null","<p id=""counter"" style=""text-align:center; color:white; font-size:30px"">+</p>","null","html-keyboard-response","242","319350","0.0-4.0-1.50","","","","","","","","","","","",""
"null","sounds/unaltered_45/BKBQ0406.WAV","null","audio-keyboard-response","243","320878","0.0-4.0-0.51","unaltered","0406.wav","GUID","309901","30","must be formatted exactly thusly: MM/DD/YYYY","??","??","?? maybe 1=Clinical; 2=Healthy control","integer number of months","96","null"
"null","<p id=""counter"" style=""text-align:center; color:white; font-size:30px"">+</p>","null","html-keyboard-response","244","321379","0.0-4.0-1.51","","","","","","","","","","","",""
"null","sounds/unaltered_45/BKBQ1706.WAV","null","audio-keyboard-response","245","322647","0.0-4.0-0.52","unaltered","1706.wav","GUID","309901","30","must be formatted exactly thusly: MM/DD/YYYY","??","??","?? maybe 1=Clinical; 2=Healthy control","integer number of months","97","null"
"null","<p id=""counter"" style=""text-align:center; color:white; font-size:30px"">+</p>","null","html-keyboard-response","246","323149","0.0-4.0-1.52","","","","","","","","","","","",""
"null","sounds/unaltered_45/BKBQ2016.WAV","null","audio-keyboard-response","247","324828","0.0-4.0-0.53","unaltered","2016.wav","GUID","309901","30","must be formatted exactly thusly: MM/DD/YYYY","??","??","?? maybe 1=Clinical; 2=Healthy control","integer number of months","98","null"
"null","<p id=""counter"" style=""text-align:center; color:white; font-size:30px"">+</p>","null","html-keyboard-response","248","325330","0.0-4.0-1.53","","","","","","","","","","","",""
"null","sounds/unaltered_45/BKBQ0115.WAV","null","audio-keyboard-response","249","326796","0.0-4.0-0.54","unaltered","0115.wav","GUID","309901","30","must be formatted exactly thusly: MM/DD/YYYY","??","??","?? maybe 1=Clinical; 2=Healthy control","integer number of months","99","null"
"null","<p id=""counter"" style=""text-align:center; color:white; font-size:30px"">+</p>","null","html-keyboard-response","250","327298","0.0-4.0-1.54","","","","","","","","","","","",""
"null","sounds/unaltered_45/BKBQ2008.WAV","null","audio-keyboard-response","251","328868","0.0-4.0-0.55","unaltered","2008.wav","GUID","309901","30","must be formatted exactly thusly: MM/DD/YYYY","??","??","?? maybe 1=Clinical; 2=Healthy control","integer number of months","100","null"
"null","<p id=""counter"" style=""text-align:center; color:white; font-size:30px"">+</p>","null","html-keyboard-response","252","329369","0.0-4.0-1.55","","","","","","","","","","","",""
"null","sounds/unaltered_45/BKBQ0416.WAV","null","audio-keyboard-response","253","331026","0.0-4.0-0.56","unaltered","0416.wav","GUID","309901","30","must be formatted exactly thusly: MM/DD/YYYY","??","??","?? maybe 1=Clinical; 2=Healthy control","integer number of months","101","null"
"null","<p id=""counter"" style=""text-align:center; color:white; font-size:30px"">+</p>","null","html-keyboard-response","254","331528","0.0-4.0-1.56","","","","","","","","","","","",""
"null","sounds/unaltered_45/BKBQ0110.WAV","null","audio-keyboard-response","255","332706","0.0-4.0-0.57","unaltered","0110.wav","GUID","309901","30","must be formatted exactly thusly: MM/DD/YYYY","??","??","?? maybe 1=Clinical; 2=Healthy control","integer number of months","102","null"
"null","<p id=""counter"" style=""text-align:center; color:white; font-size:30px"">+</p>","null","html-keyboard-response","256","333208","0.0-4.0-1.57","","","","","","","","","","","",""
"null","sounds/unaltered_45/BKBQ1904.WAV","null","audio-keyboard-response","257","334827","0.0-4.0-0.58","unaltered","1904.wav","GUID","309901","30","must be formatted exactly thusly: MM/DD/YYYY","??","??","?? maybe 1=Clinical; 2=Healthy control","integer number of months","103","null"
"null","<p id=""counter"" style=""text-align:center; color:white; font-size:30px"">+</p>","null","html-keyboard-response","258","335330","0.0-4.0-1.58","","","","","","","","","","","",""
"null","sounds/unaltered_45/BKBQ0308.WAV","null","audio-keyboard-response","259","336858","0.0-4.0-0.59","unaltered","0308.wav","GUID","309901","30","must be formatted exactly thusly: MM/DD/YYYY","??","??","?? maybe 1=Clinical; 2=Healthy control","integer number of months","104","null"
"null","<p id=""counter"" style=""text-align:center; color:white; font-size:30px"">+</p>","null","html-keyboard-response","260","337360","0.0-4.0-1.59","","","","","","","","","","","",""
"null","sounds/unaltered_45/BKBQ0413.WAV","null","audio-keyboard-response","261","339116","0.0-4.0-0.60","unaltered","0413.wav","GUID","309901","30","must be formatted exactly thusly: MM/DD/YYYY","??","??","?? maybe 1=Clinical; 2=Healthy control","integer number of months","105","null"
"null","<p id=""counter"" style=""text-align:center; color:white; font-size:30px"">+</p>","null","html-keyboard-response","262","339618","0.0-4.0-1.60","","","","","","","","","","","",""
"null","sounds/unaltered_45/BKBQ2012.WAV","null","audio-keyboard-response","263","341205","0.0-4.0-0.61","unaltered","2012.wav","GUID","309901","30","must be formatted exactly thusly: MM/DD/YYYY","??","??","?? maybe 1=Clinical; 2=Healthy control","integer number of months","106","null"
"null","<p id=""counter"" style=""text-align:center; color:white; font-size:30px"">+</p>","null","html-keyboard-response","264","341707","0.0-4.0-1.61","","","","","","","","","","","",""
"null","sounds/unaltered_45/BKBQ2107.WAV","null","audio-keyboard-response","265","342867","0.0-4.0-0.62","unaltered","2107.wav","GUID","309901","30","must be formatted exactly thusly: MM/DD/YYYY","??","??","?? maybe 1=Clinical; 2=Healthy control","integer number of months","107","null"
"null","<p id=""counter"" style=""text-align:center; color:white; font-size:30px"">+</p>","null","html-keyboard-response","266","343369","0.0-4.0-1.62","","","","","","","","","","","",""
"null","sounds/unaltered_45/BKBQ0312.WAV","null","audio-keyboard-response","267","344888","0.0-4.0-0.63","unaltered","0312.wav","GUID","309901","30","must be formatted exactly thusly: MM/DD/YYYY","??","??","?? maybe 1=Clinical; 2=Healthy control","integer number of months","108","null"
"null","<p id=""counter"" style=""text-align:center; color:white; font-size:30px"">+</p>","null","html-keyboard-response","268","345389","0.0-4.0-1.63","","","","","","","","","","","",""
"null","sounds/unaltered_45/BKBQ2112.WAV","null","audio-keyboard-response","269","347027","0.0-4.0-0.64","unaltered","2112.wav","GUID","309901","30","must be formatted exactly thusly: MM/DD/YYYY","??","??","?? maybe 1=Clinical; 2=Healthy control","integer number of months","109","null"
"null","<p id=""counter"" style=""text-align:center; color:white; font-size:30px"">+</p>","null","html-keyboard-response","270","347530","0.0-4.0-1.64","","","","","","","","","","","",""
"null","sounds/unaltered_45/BKBQ1902.WAV","null","audio-keyboard-response","271","349057","0.0-4.0-0.65","unaltered","1902.wav","GUID","309901","30","must be formatted exactly thusly: MM/DD/YYYY","??","??","?? maybe 1=Clinical; 2=Healthy control","integer number of months","110","null"
"null","<p id=""counter"" style=""text-align:center; color:white; font-size:30px"">+</p>","null","html-keyboard-response","272","349558","0.0-4.0-1.65","","","","","","","","","","","",""
"null","sounds/unaltered_45/BKBQ1814.WAV","null","audio-keyboard-response","273","351166","0.0-4.0-0.66","unaltered","1814.wav","GUID","309901","30","must be formatted exactly thusly: MM/DD/YYYY","??","??","?? maybe 1=Clinical; 2=Healthy control","integer number of months","111","null"
"null","<p id=""counter"" style=""text-align:center; color:white; font-size:30px"">+</p>","null","html-keyboard-response","274","351667","0.0-4.0-1.66","","","","","","","","","","","",""
"null","sounds/unaltered_45/BKBQ1914.WAV","null","audio-keyboard-response","275","353125","0.0-4.0-0.67","unaltered","1914.wav","GUID","309901","30","must be formatted exactly thusly: MM/DD/YYYY","??","??","?? maybe 1=Clinical; 2=Healthy control","integer number of months","112","null"
"null","<p id=""counter"" style=""text-align:center; color:white; font-size:30px"">+</p>","null","html-keyboard-response","276","353628","0.0-4.0-1.67","","","","","","","","","","","",""
"null","sounds/unaltered_45/BKBQ0409.WAV","null","audio-keyboard-response","277","354977","0.0-4.0-0.68","unaltered","0409.wav","GUID","309901","30","must be formatted exactly thusly: MM/DD/YYYY","??","??","?? maybe 1=Clinical; 2=Healthy control","integer number of months","113","null"
"null","<p id=""counter"" style=""text-align:center; color:white; font-size:30px"">+</p>","null","html-keyboard-response","278","355479","0.0-4.0-1.68","","","","","","","","","","","",""
"null","sounds/unaltered_45/BKBQ0401.WAV","null","audio-keyboard-response","279","357205","0.0-4.0-0.69","unaltered","0401.wav","GUID","309901","30","must be formatted exactly thusly: MM/DD/YYYY","??","??","?? maybe 1=Clinical; 2=Healthy control","integer number of months","114","null"
"null","<p id=""counter"" style=""text-align:center; color:white; font-size:30px"">+</p>","null","html-keyboard-response","280","357706","0.0-4.0-1.69","","","","","","","","","","","",""
"null","sounds/unaltered_45/BKBQ2010.WAV","null","audio-keyboard-response","281","358926","0.0-4.0-0.70","unaltered","2010.wav","GUID","309901","30","must be formatted exactly thusly: MM/DD/YYYY","??","??","?? maybe 1=Clinical; 2=Healthy control","integer number of months","115","null"
"null","<p id=""counter"" style=""text-align:center; color:white; font-size:30px"">+</p>","null","html-keyboard-response","282","359428","0.0-4.0-1.70","","","","","","","","","","","",""
"null","sounds/unaltered_45/BKBQ0109.WAV","null","audio-keyboard-response","283","360928","0.0-4.0-0.71","unaltered","0109.wav","GUID","309901","30","must be formatted exactly thusly: MM/DD/YYYY","??","??","?? maybe 1=Clinical; 2=Healthy control","integer number of months","116","null"
"null","<p id=""counter"" style=""text-align:center; color:white; font-size:30px"">+</p>","null","html-keyboard-response","284","361429","0.0-4.0-1.71","","","","","","","","","","","",""
"null","sounds/unaltered_45/BKBQ1710.WAV","null","audio-keyboard-response","285","363007","0.0-4.0-0.72","unaltered","1710.wav","GUID","309901","30","must be formatted exactly thusly: MM/DD/YYYY","??","??","?? maybe 1=Clinical; 2=Healthy control","integer number of months","117","null"
"null","<p id=""counter"" style=""text-align:center; color:white; font-size:30px"">+</p>","null","html-keyboard-response","286","363510","0.0-4.0-1.72","","","","","","","","","","","",""
"null","sounds/unaltered_45/BKBQ2002.WAV","null","audio-keyboard-response","287","364367","0.0-4.0-0.73","unaltered","2002.wav","GUID","309901","30","must be formatted exactly thusly: MM/DD/YYYY","??","??","?? maybe 1=Clinical; 2=Healthy control","integer number of months","118","null"
"null","<p id=""counter"" style=""text-align:center; color:white; font-size:30px"">+</p>","null","html-keyboard-response","288","364869","0.0-4.0-1.73","","","","","","","","","","","",""
"null","sounds/unaltered_45/BKBQ0603.WAV","null","audio-keyboard-response","289","366377","0.0-4.0-0.74","unaltered","0603.wav","GUID","309901","30","must be formatted exactly thusly: MM/DD/YYYY","??","??","?? maybe 1=Clinical; 2=Healthy control","integer number of months","119","null"
"null","<p id=""counter"" style=""text-align:center; color:white; font-size:30px"">+</p>","null","html-keyboard-response","290","366878","0.0-4.0-1.74","","","","","","","","","","","",""
"null","sounds/unaltered_45/BKBQ1702.WAV","null","audio-keyboard-response","291","368378","0.0-4.0-0.75","unaltered","1702.wav","GUID","309901","30","must be formatted exactly thusly: MM/DD/YYYY","??","??","?? maybe 1=Clinical; 2=Healthy control","integer number of months","120","null"
"null","<p id=""counter"" style=""text-align:center; color:white; font-size:30px"">+</p>","null","html-keyboard-response","292","368880","0.0-4.0-1.75","","","","","","","","","","","",""
"null","sounds/unaltered_45/BKBQ1816.WAV","null","audio-keyboard-response","293","370487","0.0-4.0-0.76","unaltered","1816.wav","GUID","309901","30","must be formatted exactly thusly: MM/DD/YYYY","??","??","?? maybe 1=Clinical; 2=Healthy control","integer number of months","121","null"
"null","<p id=""counter"" style=""text-align:center; color:white; font-size:30px"">+</p>","null","html-keyboard-response","294","370989","0.0-4.0-1.76","","","","","","","","","","","",""
"null","sounds/unaltered_45/BKBQ2001.WAV","null","audio-keyboard-response","295","372416","0.0-4.0-0.77","unaltered","2001.wav","GUID","309901","30","must be formatted exactly thusly: MM/DD/YYYY","??","??","?? maybe 1=Clinical; 2=Healthy control","integer number of months","122","null"
"null","<p id=""counter"" style=""text-align:center; color:white; font-size:30px"">+</p>","null","html-keyboard-response","296","372917","0.0-4.0-1.77","","","","","","","","","","","",""
"null","sounds/unaltered_45/BKBQ0612.WAV","null","audio-keyboard-response","297","374756","0.0-4.0-0.78","unaltered","0612.wav","GUID","309901","30","must be formatted exactly thusly: MM/DD/YYYY","??","??","?? maybe 1=Clinical; 2=Healthy control","integer number of months","123","null"
"null","<p id=""counter"" style=""text-align:center; color:white; font-size:30px"">+</p>","null","html-keyboard-response","298","375257","0.0-4.0-1.78","","","","","","","","","","","",""
"null","sounds/unaltered_45/BKBQ0209.WAV","null","audio-keyboard-response","299","376697","0.0-4.0-0.79","unaltered","0209.wav","GUID","309901","30","must be formatted exactly thusly: MM/DD/YYYY","??","??","?? maybe 1=Clinical; 2=Healthy control","integer number of months","124","null"
"null","<p id=""counter"" style=""text-align:center; color:white; font-size:30px"">+</p>","null","html-keyboard-response","300","377199","0.0-4.0-1.79","","","","","","","","","","","",""
"null","sounds/unaltered_45/BKBQ0206.WAV","null","audio-keyboard-response","301","378817","0.0-4.0-0.80","unaltered","0206.wav","GUID","309901","30","must be formatted exactly thusly: MM/DD/YYYY","??","??","?? maybe 1=Clinical; 2=Healthy control","integer number of months","125","null"
"null","<p id=""counter"" style=""text-align:center; color:white; font-size:30px"">+</p>","null","html-keyboard-response","302","379320","0.0-4.0-1.80","","","","","","","","","","","",""
"null","sounds/unaltered_45/BKBQ0512.WAV","null","audio-keyboard-response","303","380647","0.0-4.0-0.81","unaltered","0512.wav","GUID","309901","30","must be formatted exactly thusly: MM/DD/YYYY","??","??","?? maybe 1=Clinical; 2=Healthy control","integer number of months","126","null"
"null","<p id=""counter"" style=""text-align:center; color:white; font-size:30px"">+</p>","null","html-keyboard-response","304","381149","0.0-4.0-1.81","","","","","","","","","","","",""
"null","sounds/unaltered_45/BKBQ0202.WAV","null","audio-keyboard-response","305","382498","0.0-4.0-0.82","unaltered","0202.wav","GUID","309901","30","must be formatted exactly thusly: MM/DD/YYYY","??","??","?? maybe 1=Clinical; 2=Healthy control","integer number of months","127","null"
"null","<p id=""counter"" style=""text-align:center; color:white; font-size:30px"">+</p>","null","html-keyboard-response","306","383000","0.0-4.0-1.82","","","","","","","","","","","",""
"null","sounds/unaltered_45/BKBQ0307.WAV","null","audio-keyboard-response","307","384777","0.0-4.0-0.83","unaltered","0307.wav","GUID","309901","30","must be formatted exactly thusly: MM/DD/YYYY","??","??","?? maybe 1=Clinical; 2=Healthy control","integer number of months","128","null"
"null","<p id=""counter"" style=""text-align:center; color:white; font-size:30px"">+</p>","null","html-keyboard-response","308","385278","0.0-4.0-1.83","","","","","","","","","","","",""
"null","sounds/unaltered_45/BKBQ0608.WAV","null","audio-keyboard-response","309","386737","0.0-4.0-0.84","unaltered","0608.wav","GUID","309901","30","must be formatted exactly thusly: MM/DD/YYYY","??","??","?? maybe 1=Clinical; 2=Healthy control","integer number of months","129","null"
"null","<p id=""counter"" style=""text-align:center; color:white; font-size:30px"">+</p>","null","html-keyboard-response","310","387238","0.0-4.0-1.84","","","","","","","","","","","",""
"null","sounds/unaltered_45/BKBQ1715.WAV","null","audio-keyboard-response","311","388797","0.0-4.0-0.85","unaltered","1715.wav","GUID","309901","30","must be formatted exactly thusly: MM/DD/YYYY","??","??","?? maybe 1=Clinical; 2=Healthy control","integer number of months","130","null"
"null","<p id=""counter"" style=""text-align:center; color:white; font-size:30px"">+</p>","null","html-keyboard-response","312","389299","0.0-4.0-1.85","","","","","","","","","","","",""
"null","sounds/unaltered_45/BKBQ0315.WAV","null","audio-keyboard-response","313","390867","0.0-4.0-0.86","unaltered","0315.wav","GUID","309901","30","must be formatted exactly thusly: MM/DD/YYYY","??","??","?? maybe 1=Clinical; 2=Healthy control","integer number of months","131","null"
"null","<p id=""counter"" style=""text-align:center; color:white; font-size:30px"">+</p>","null","html-keyboard-response","314","391369","0.0-4.0-1.86","","","","","","","","","","","",""
"null","sounds/unaltered_45/BKBQ0309.WAV","null","audio-keyboard-response","315","392927","0.0-4.0-0.87","unaltered","0309.wav","GUID","309901","30","must be formatted exactly thusly: MM/DD/YYYY","??","??","?? maybe 1=Clinical; 2=Healthy control","integer number of months","132","null"
"null","<p id=""counter"" style=""text-align:center; color:white; font-size:30px"">+</p>","null","html-keyboard-response","316","393428","0.0-4.0-1.87","","","","","","","","","","","",""
"null","sounds/unaltered_45/BKBQ0304.WAV","null","audio-keyboard-response","317","394937","0.0-4.0-0.88","unaltered","0304.wav","GUID","309901","30","must be formatted exactly thusly: MM/DD/YYYY","??","??","?? maybe 1=Clinical; 2=Healthy control","integer number of months","133","null"
"null","<p id=""counter"" style=""text-align:center; color:white; font-size:30px"">+</p>","null","html-keyboard-response","318","395439","0.0-4.0-1.88","","","","","","","","","","","",""
"null","sounds/unaltered_45/BKBQ0407.WAV","null","audio-keyboard-response","319","396766","0.0-4.0-0.89","unaltered","0407.wav","GUID","309901","30","must be formatted exactly thusly: MM/DD/YYYY","??","??","?? maybe 1=Clinical; 2=Healthy control","integer number of months","134","null"
"null","<p id=""counter"" style=""text-align:center; color:white; font-size:30px"">+</p>","null","html-keyboard-response","320","397267","0.0-4.0-1.89","","","","","","","","","","","",""
"null","<h2 style=""color:white;"">We will now begin the second test block.</h2","null","html-keyboard-response","321","407268","0.0-5.0","","","","","","","","","","","",""
"null","<p id=""counter"" style=""text-align:center; color:white; font-size:30px"">+</p>","null","html-keyboard-response","322","408270","0.0-6.0-0.0","","","","","","","","","","","",""
"null","sounds/intel_45/I_BKBQ0109.wav","null","audio-keyboard-response","323","410306","0.0-6.0-1.0","","","","","","","","","","","",""
"1077.9699999839067","<h1 style=""color:white;"">Could you hear speech in the audio?</h1><h3 style=""color:white;"">Press ""1"" for YES &nbsp&nbsp&nbsp&nbsp&nbsp&nbsp&nbsp&nbsp&nbsp&nbsp Press ""0"" for NO</h3>","49","html-keyboard-response","324","411386","0.0-6.0-2.0","intel","109.wav","GUID","309901","30","must be formatted exactly thusly: MM/DD/YYYY","??","??","?? maybe 1=Clinical; 2=Healthy control","integer number of months","136","1"
"null","<p id=""counter"" style=""text-align:center; color:white; font-size:30px"">+</p>","null","html-keyboard-response","325","412388","0.0-6.0-0.1","","","","","","","","","","","",""
"null","sounds/intel_45/I_BKBQ0308.wav","null","audio-keyboard-response","326","414425","0.0-6.0-1.1","","","","","","","","","","","",""
"365.2250000159256","<h1 style=""color:white;"">Could you hear speech in the audio?</h1><h3 style=""color:white;"">Press ""1"" for YES &nbsp&nbsp&nbsp&nbsp&nbsp&nbsp&nbsp&nbsp&nbsp&nbsp Press ""0"" for NO</h3>","49","html-keyboard-response","327","414791","0.0-6.0-2.1","intel","308.wav","GUID","309901","30","must be formatted exactly thusly: MM/DD/YYYY","??","??","?? maybe 1=Clinical; 2=Healthy control","integer number of months","137","1"
"null","<p id=""counter"" style=""text-align:center; color:white; font-size:30px"">+</p>","null","html-keyboard-response","328","415792","0.0-6.0-0.2","","","","","","","","","","","",""
"null","sounds/intel_45/I_BKBQ0505.wav","null","audio-keyboard-response","329","417827","0.0-6.0-1.2","","","","","","","","","","","",""
"899.4800000218675","<h1 style=""color:white;"">Could you hear speech in the audio?</h1><h3 style=""color:white;"">Press ""1"" for YES &nbsp&nbsp&nbsp&nbsp&nbsp&nbsp&nbsp&nbsp&nbsp&nbsp Press ""0"" for NO</h3>","49","html-keyboard-response","330","418728","0.0-6.0-2.2","intel","505.wav","GUID","309901","30","must be formatted exactly thusly: MM/DD/YYYY","??","??","?? maybe 1=Clinical; 2=Healthy control","integer number of months","138","1"
"null","<p id=""counter"" style=""text-align:center; color:white; font-size:30px"">+</p>","null","html-keyboard-response","331","419728","0.0-6.0-0.3","","","","","","","","","","","",""
"null","sounds/intel_45/I_BKBQ0416.wav","null","audio-keyboard-response","332","421977","0.0-6.0-1.3","","","","","","","","","","","",""
"406.7700000014156","<h1 style=""color:white;"">Could you hear speech in the audio?</h1><h3 style=""color:white;"">Press ""1"" for YES &nbsp&nbsp&nbsp&nbsp&nbsp&nbsp&nbsp&nbsp&nbsp&nbsp Press ""0"" for NO</h3>","49","html-keyboard-response","333","422385","0.0-6.0-2.3","intel","416.wav","GUID","309901","30","must be formatted exactly thusly: MM/DD/YYYY","??","??","?? maybe 1=Clinical; 2=Healthy control","integer number of months","139","1"
"null","<p id=""counter"" style=""text-align:center; color:white; font-size:30px"">+</p>","null","html-keyboard-response","334","423387","0.0-6.0-0.4","","","","","","","","","","","",""
"null","sounds/intel_45/I_BKBQ0306.wav","null","audio-keyboard-response","335","425215","0.0-6.0-1.4","","","","","","","","","","","",""
"1055.5550000281073","<h1 style=""color:white;"">Could you hear speech in the audio?</h1><h3 style=""color:white;"">Press ""1"" for YES &nbsp&nbsp&nbsp&nbsp&nbsp&nbsp&nbsp&nbsp&nbsp&nbsp Press ""0"" for NO</h3>","49","html-keyboard-response","336","426271","0.0-6.0-2.4","intel","306.wav","GUID","309901","30","must be formatted exactly thusly: MM/DD/YYYY","??","??","?? maybe 1=Clinical; 2=Healthy control","integer number of months","140","1"
"null","<p id=""counter"" style=""text-align:center; color:white; font-size:30px"">+</p>","null","html-keyboard-response","337","427272","0.0-6.0-0.5","","","","","","","","","","","",""
"null","sounds/unintel_45/U_BKBQ0109.WAV","null","audio-keyboard-response","338","429066","0.0-6.0-1.5","","","","","","","","","","","",""
"388.0549999885261","<h1 style=""color:white;"">Could you hear speech in the audio?</h1><h3 style=""color:white;"">Press ""1"" for YES &nbsp&nbsp&nbsp&nbsp&nbsp&nbsp&nbsp&nbsp&nbsp&nbsp Press ""0"" for NO</h3>","48","html-keyboard-response","339","429456","0.0-6.0-2.5","unintel","109.wav","GUID","309901","30","must be formatted exactly thusly: MM/DD/YYYY","??","??","?? maybe 1=Clinical; 2=Healthy control","integer number of months","141","0"
"null","<p id=""counter"" style=""text-align:center; color:white; font-size:30px"">+</p>","null","html-keyboard-response","340","430458","0.0-6.0-0.6","","","","","","","","","","","",""
"null","sounds/unintel_45/U_BKBQ0203.WAV","null","audio-keyboard-response","341","432245","0.0-6.0-1.6","","","","","","","","","","","",""
"371.48499995237216","<h1 style=""color:white;"">Could you hear speech in the audio?</h1><h3 style=""color:white;"">Press ""1"" for YES &nbsp&nbsp&nbsp&nbsp&nbsp&nbsp&nbsp&nbsp&nbsp&nbsp Press ""0"" for NO</h3>","48","html-keyboard-response","342","432617","0.0-6.0-2.6","unintel","203.wav","GUID","309901","30","must be formatted exactly thusly: MM/DD/YYYY","??","??","?? maybe 1=Clinical; 2=Healthy control","integer number of months","142","0"
"null","<p id=""counter"" style=""text-align:center; color:white; font-size:30px"">+</p>","null","html-keyboard-response","343","433620","0.0-6.0-0.7","","","","","","","","","","","",""
"null","sounds/intel_45/I_BKBQ0513.wav","null","audio-keyboard-response","344","435305","0.0-6.0-1.7","","","","","","","","","","","",""
"373.91999998362735","<h1 style=""color:white;"">Could you hear speech in the audio?</h1><h3 style=""color:white;"">Press ""1"" for YES &nbsp&nbsp&nbsp&nbsp&nbsp&nbsp&nbsp&nbsp&nbsp&nbsp Press ""0"" for NO</h3>","49","html-keyboard-response","345","435680","0.0-6.0-2.7","intel","513.wav","GUID","309901","30","must be formatted exactly thusly: MM/DD/YYYY","??","??","?? maybe 1=Clinical; 2=Healthy control","integer number of months","143","1"
"null","<p id=""counter"" style=""text-align:center; color:white; font-size:30px"">+</p>","null","html-keyboard-response","346","436681","0.0-6.0-0.8","","","","","","","","","","","",""
"null","sounds/unintel_45/U_BKBQ0407.WAV","null","audio-keyboard-response","347","438435","0.0-6.0-1.8","","","","","","","","","","","",""
"371.3850000058301","<h1 style=""color:white;"">Could you hear speech in the audio?</h1><h3 style=""color:white;"">Press ""1"" for YES &nbsp&nbsp&nbsp&nbsp&nbsp&nbsp&nbsp&nbsp&nbsp&nbsp Press ""0"" for NO</h3>","48","html-keyboard-response","348","438806","0.0-6.0-2.8","unintel","407.wav","GUID","309901","30","must be formatted exactly thusly: MM/DD/YYYY","??","??","?? maybe 1=Clinical; 2=Healthy control","integer number of months","144","0"
"null","<p id=""counter"" style=""text-align:center; color:white; font-size:30px"">+</p>","null","html-keyboard-response","349","439808","0.0-6.0-0.9","","","","","","","","","","","",""
"null","sounds/unintel_45/U_BKBQ0308.WAV","null","audio-keyboard-response","350","441367","0.0-6.0-1.9","","","","","","","","","","","",""
"486.71000002650544","<h1 style=""color:white;"">Could you hear speech in the audio?</h1><h3 style=""color:white;"">Press ""1"" for YES &nbsp&nbsp&nbsp&nbsp&nbsp&nbsp&nbsp&nbsp&nbsp&nbsp Press ""0"" for NO</h3>","48","html-keyboard-response","351","441855","0.0-6.0-2.9","unintel","308.wav","GUID","309901","30","must be formatted exactly thusly: MM/DD/YYYY","??","??","?? maybe 1=Clinical; 2=Healthy control","integer number of months","145","0"
"null","<p id=""counter"" style=""text-align:center; color:white; font-size:30px"">+</p>","null","html-keyboard-response","352","442856","0.0-6.0-0.10","","","","","","","","","","","",""
"null","sounds/intel_45/I_BKBQ0316.wav","null","audio-keyboard-response","353","445036","0.0-6.0-1.10","","","","","","","","","","","",""
"1771.1850000196137","<h1 style=""color:white;"">Could you hear speech in the audio?</h1><h3 style=""color:white;"">Press ""1"" for YES &nbsp&nbsp&nbsp&nbsp&nbsp&nbsp&nbsp&nbsp&nbsp&nbsp Press ""0"" for NO</h3>","49","html-keyboard-response","354","446809","0.0-6.0-2.10","intel","316.wav","GUID","309901","30","must be formatted exactly thusly: MM/DD/YYYY","??","??","?? maybe 1=Clinical; 2=Healthy control","integer number of months","146","1"
"null","<p id=""counter"" style=""text-align:center; color:white; font-size:30px"">+</p>","null","html-keyboard-response","355","447811","0.0-6.0-0.11","","","","","","","","","","","",""
"null","sounds/unintel_45/U_BKBQ0114.WAV","null","audio-keyboard-response","356","449435","0.0-6.0-1.11","","","","","","","","","","","",""
"859.1500000329688","<h1 style=""color:white;"">Could you hear speech in the audio?</h1><h3 style=""color:white;"">Press ""1"" for YES &nbsp&nbsp&nbsp&nbsp&nbsp&nbsp&nbsp&nbsp&nbsp&nbsp Press ""0"" for NO</h3>","48","html-keyboard-response","357","450296","0.0-6.0-2.11","unintel","114.wav","GUID","309901","30","must be formatted exactly thusly: MM/DD/YYYY","??","??","?? maybe 1=Clinical; 2=Healthy control","integer number of months","147","0"
"null","<p id=""counter"" style=""text-align:center; color:white; font-size:30px"">+</p>","null","html-keyboard-response","358","451298","0.0-6.0-0.12","","","","","","","","","","","",""
"null","sounds/unintel_45/U_BKBQ0106.WAV","null","audio-keyboard-response","359","453306","0.0-6.0-1.12","","","","","","","","","","","",""
"820.6749999662861","<h1 style=""color:white;"">Could you hear speech in the audio?</h1><h3 style=""color:white;"">Press ""1"" for YES &nbsp&nbsp&nbsp&nbsp&nbsp&nbsp&nbsp&nbsp&nbsp&nbsp Press ""0"" for NO</h3>","48","html-keyboard-response","360","454127","0.0-6.0-2.12","unintel","106.wav","GUID","309901","30","must be formatted exactly thusly: MM/DD/YYYY","??","??","?? maybe 1=Clinical; 2=Healthy control","integer number of months","148","0"
"null","<p id=""counter"" style=""text-align:center; color:white; font-size:30px"">+</p>","null","html-keyboard-response","361","455129","0.0-6.0-0.13","","","","","","","","","","","",""
"null","sounds/intel_45/I_BKBQ0206.wav","null","audio-keyboard-response","362","457307","0.0-6.0-1.13","","","","","","","","","","","",""
"1716.919999977108","<h1 style=""color:white;"">Could you hear speech in the audio?</h1><h3 style=""color:white;"">Press ""1"" for YES &nbsp&nbsp&nbsp&nbsp&nbsp&nbsp&nbsp&nbsp&nbsp&nbsp Press ""0"" for NO</h3>","49","html-keyboard-response","363","459025","0.0-6.0-2.13","intel","206.wav","GUID","309901","30","must be formatted exactly thusly: MM/DD/YYYY","??","??","?? maybe 1=Clinical; 2=Healthy control","integer number of months","149","1"
"null","<p id=""counter"" style=""text-align:center; color:white; font-size:30px"">+</p>","null","html-keyboard-response","364","460027","0.0-6.0-0.14","","","","","","","","","","","",""
"null","sounds/intel_45/I_BKBQ0215.wav","null","audio-keyboard-response","365","461646","0.0-6.0-1.14","","","","","","","","","","","",""
"503.8749999948777","<h1 style=""color:white;"">Could you hear speech in the audio?</h1><h3 style=""color:white;"">Press ""1"" for YES &nbsp&nbsp&nbsp&nbsp&nbsp&nbsp&nbsp&nbsp&nbsp&nbsp Press ""0"" for NO</h3>","49","html-keyboard-response","366","462151","0.0-6.0-2.14","intel","215.wav","GUID","309901","30","must be formatted exactly thusly: MM/DD/YYYY","??","??","?? maybe 1=Clinical; 2=Healthy control","integer number of months","150","1"
"null","<p id=""counter"" style=""text-align:center; color:white; font-size:30px"">+</p>","null","html-keyboard-response","367","463153","0.0-6.0-0.15","","","","","","","","","","","",""
"null","sounds/unintel_45/U_BKBQ0102.WAV","null","audio-keyboard-response","368","464997","0.0-6.0-1.15","","","","","","","","","","","",""
"841.3850000360981","<h1 style=""color:white;"">Could you hear speech in the audio?</h1><h3 style=""color:white;"">Press ""1"" for YES &nbsp&nbsp&nbsp&nbsp&nbsp&nbsp&nbsp&nbsp&nbsp&nbsp Press ""0"" for NO</h3>","48","html-keyboard-response","369","465839","0.0-6.0-2.15","unintel","102.wav","GUID","309901","30","must be formatted exactly thusly: MM/DD/YYYY","??","??","?? maybe 1=Clinical; 2=Healthy control","integer number of months","151","0"
"null","<p id=""counter"" style=""text-align:center; color:white; font-size:30px"">+</p>","null","html-keyboard-response","370","466840","0.0-6.0-0.16","","","","","","","","","","","",""
"null","sounds/unintel_45/U_BKBQ0409.WAV","null","audio-keyboard-response","371","468816","0.0-6.0-1.16","","","","","","","","","","","",""
"957.8749999636784","<h1 style=""color:white;"">Could you hear speech in the audio?</h1><h3 style=""color:white;"">Press ""1"" for YES &nbsp&nbsp&nbsp&nbsp&nbsp&nbsp&nbsp&nbsp&nbsp&nbsp Press ""0"" for NO</h3>","48","html-keyboard-response","372","469775","0.0-6.0-2.16","unintel","409.wav","GUID","309901","30","must be formatted exactly thusly: MM/DD/YYYY","??","??","?? maybe 1=Clinical; 2=Healthy control","integer number of months","152","0"
"null","<p id=""counter"" style=""text-align:center; color:white; font-size:30px"">+</p>","null","html-keyboard-response","373","470777","0.0-6.0-0.17","","","","","","","","","","","",""
"null","sounds/intel_45/I_BKBQ0205.wav","null","audio-keyboard-response","374","472606","0.0-6.0-1.17","","","","","","","","","","","",""
"770.299999974668","<h1 style=""color:white;"">Could you hear speech in the audio?</h1><h3 style=""color:white;"">Press ""1"" for YES &nbsp&nbsp&nbsp&nbsp&nbsp&nbsp&nbsp&nbsp&nbsp&nbsp Press ""0"" for NO</h3>","49","html-keyboard-response","375","473377","0.0-6.0-2.17","intel","205.wav","GUID","309901","30","must be formatted exactly thusly: MM/DD/YYYY","??","??","?? maybe 1=Clinical; 2=Healthy control","integer number of months","153","1"
"null","<p id=""counter"" style=""text-align:center; color:white; font-size:30px"">+</p>","null","html-keyboard-response","376","474379","0.0-6.0-0.18","","","","","","","","","","","",""
"null","sounds/unintel_45/U_BKBQ0112.WAV","null","audio-keyboard-response","377","476087","0.0-6.0-1.18","","","","","","","","","","","",""
"743.6200000229292","<h1 style=""color:white;"">Could you hear speech in the audio?</h1><h3 style=""color:white;"">Press ""1"" for YES &nbsp&nbsp&nbsp&nbsp&nbsp&nbsp&nbsp&nbsp&nbsp&nbsp Press ""0"" for NO</h3>","48","html-keyboard-response","378","476832","0.0-6.0-2.18","unintel","112.wav","GUID","309901","30","must be formatted exactly thusly: MM/DD/YYYY","??","??","?? maybe 1=Clinical; 2=Healthy control","integer number of months","154","0"
"null","<p id=""counter"" style=""text-align:center; color:white; font-size:30px"">+</p>","null","html-keyboard-response","379","477837","0.0-6.0-0.19","","","","","","","","","","","",""
"null","sounds/unintel_45/U_BKBQ0603.WAV","null","audio-keyboard-response","380","479888","0.0-6.0-1.19","","","","","","","","","","","",""
"1152.5549999787472","<h1 style=""color:white;"">Could you hear speech in the audio?</h1><h3 style=""color:white;"">Press ""1"" for YES &nbsp&nbsp&nbsp&nbsp&nbsp&nbsp&nbsp&nbsp&nbsp&nbsp Press ""0"" for NO</h3>","48","html-keyboard-response","381","481041","0.0-6.0-2.19","unintel","603.wav","GUID","309901","30","must be formatted exactly thusly: MM/DD/YYYY","??","??","?? maybe 1=Clinical; 2=Healthy control","integer number of months","155","0"
"null","<p id=""counter"" style=""text-align:center; color:white; font-size:30px"">+</p>","null","html-keyboard-response","382","482044","0.0-6.0-0.20","","","","","","","","","","","",""
"null","sounds/intel_45/I_BKBQ0406.wav","null","audio-keyboard-response","383","484067","0.0-6.0-1.20","","","","","","","","","","","",""
"811.8849999736995","<h1 style=""color:white;"">Could you hear speech in the audio?</h1><h3 style=""color:white;"">Press ""1"" for YES &nbsp&nbsp&nbsp&nbsp&nbsp&nbsp&nbsp&nbsp&nbsp&nbsp Press ""0"" for NO</h3>","49","html-keyboard-response","384","484880","0.0-6.0-2.20","intel","406.wav","GUID","309901","30","must be formatted exactly thusly: MM/DD/YYYY","??","??","?? maybe 1=Clinical; 2=Healthy control","integer number of months","156","1"
"null","<p id=""counter"" style=""text-align:center; color:white; font-size:30px"">+</p>","null","html-keyboard-response","385","485881","0.0-6.0-0.21","","","","","","","","","","","",""
"null","sounds/unintel_45/U_BKBQ0110.WAV","null","audio-keyboard-response","386","487436","0.0-6.0-1.21","","","","","","","","","","","",""
"1035.375000035856","<h1 style=""color:white;"">Could you hear speech in the audio?</h1><h3 style=""color:white;"">Press ""1"" for YES &nbsp&nbsp&nbsp&nbsp&nbsp&nbsp&nbsp&nbsp&nbsp&nbsp Press ""0"" for NO</h3>","48","html-keyboard-response","387","488472","0.0-6.0-2.21","unintel","110.wav","GUID","309901","30","must be formatted exactly thusly: MM/DD/YYYY","??","??","?? maybe 1=Clinical; 2=Healthy control","integer number of months","157","0"
"null","<p id=""counter"" style=""text-align:center; color:white; font-size:30px"">+</p>","null","html-keyboard-response","388","489473","0.0-6.0-0.22","","","","","","","","","","","",""
"null","sounds/unintel_45/U_BKBQ0412.WAV","null","audio-keyboard-response","389","491188","0.0-6.0-1.22","","","","","","","","","","","",""
"652.1799999754876","<h1 style=""color:white;"">Could you hear speech in the audio?</h1><h3 style=""color:white;"">Press ""1"" for YES &nbsp&nbsp&nbsp&nbsp&nbsp&nbsp&nbsp&nbsp&nbsp&nbsp Press ""0"" for NO</h3>","48","html-keyboard-response","390","491841","0.0-6.0-2.22","unintel","412.wav","GUID","309901","30","must be formatted exactly thusly: MM/DD/YYYY","??","??","?? maybe 1=Clinical; 2=Healthy control","integer number of months","158","0"
"null","<p id=""counter"" style=""text-align:center; color:white; font-size:30px"">+</p>","null","html-keyboard-response","391","492842","0.0-6.0-0.23","","","","","","","","","","","",""
"null","sounds/intel_45/I_BKBQ0304.wav","null","audio-keyboard-response","392","494867","0.0-6.0-1.23","","","","","","","","","","","",""
"1508.1050000153482","<h1 style=""color:white;"">Could you hear speech in the audio?</h1><h3 style=""color:white;"">Press ""1"" for YES &nbsp&nbsp&nbsp&nbsp&nbsp&nbsp&nbsp&nbsp&nbsp&nbsp Press ""0"" for NO</h3>","49","html-keyboard-response","393","496376","0.0-6.0-2.23","intel","304.wav","GUID","309901","30","must be formatted exactly thusly: MM/DD/YYYY","??","??","?? maybe 1=Clinical; 2=Healthy control","integer number of months","159","1"
"null","<p id=""counter"" style=""text-align:center; color:white; font-size:30px"">+</p>","null","html-keyboard-response","394","497378","0.0-6.0-0.24","","","","","","","","","","","",""
"null","sounds/unintel_45/U_BKBQ0512.WAV","null","audio-keyboard-response","395","499057","0.0-6.0-1.24","","","","","","","","","","","",""
"708.8050000020303","<h1 style=""color:white;"">Could you hear speech in the audio?</h1><h3 style=""color:white;"">Press ""1"" for YES &nbsp&nbsp&nbsp&nbsp&nbsp&nbsp&nbsp&nbsp&nbsp&nbsp Press ""0"" for NO</h3>","48","html-keyboard-response","396","499767","0.0-6.0-2.24","unintel","512.wav","GUID","309901","30","must be formatted exactly thusly: MM/DD/YYYY","??","??","?? maybe 1=Clinical; 2=Healthy control","integer number of months","160","0"
"null","<p id=""counter"" style=""text-align:center; color:white; font-size:30px"">+</p>","null","html-keyboard-response","397","500769","0.0-6.0-0.25","","","","","","","","","","","",""
"null","sounds/intel_45/I_BKBQ0612.wav","null","audio-keyboard-response","398","503226","0.0-6.0-1.25","","","","","","","","","","","",""
"367.0050000073388","<h1 style=""color:white;"">Could you hear speech in the audio?</h1><h3 style=""color:white;"">Press ""1"" for YES &nbsp&nbsp&nbsp&nbsp&nbsp&nbsp&nbsp&nbsp&nbsp&nbsp Press ""0"" for NO</h3>","49","html-keyboard-response","399","503593","0.0-6.0-2.25","intel","612.wav","GUID","309901","30","must be formatted exactly thusly: MM/DD/YYYY","??","??","?? maybe 1=Clinical; 2=Healthy control","integer number of months","161","1"
"null","<p id=""counter"" style=""text-align:center; color:white; font-size:30px"">+</p>","null","html-keyboard-response","400","504595","0.0-6.0-0.26","","","","","","","","","","","",""
"null","sounds/unintel_45/U_BKBQ0416.WAV","null","audio-keyboard-response","401","506486","0.0-6.0-1.26","","","","","","","","","","","",""
