"rt","stimulus","key_press","trial_type","trial_index","time_elapsed","internal_node_id"
"1139.9050001055002","<p style=""color:white;"">Welcome to the experiment!</p><p style=""color:white;"">Press any key to continue.</p>","32","html-keyboard-response","0","1146","0.0-0.0"
"11715.93499998562","<p style=""color:white;"">In this task you will listen to a series of audio clips.</p><p style=""color:white;"">The task is split into two test blocks, with a listening block in-between.</p><p style=""color:white;"">In the test blocks you will listen to a series of audio clips, and will have to indicate whether you heard speech in each clip.</p><p style=""color:white;"">In the listening block you just have to listen to several audio recordings. No response is required.</p><p style=""color:white;"">Press any key to continue to the study.</p>","32","html-keyboard-response","1","12865","0.0-1.0-0.0"
"2086.2249999772757","<p style=""color:white;"">We will now begin the first test block .</p> <p style=""color:white;"">Press any key to begin.</p>","32","html-keyboard-response","2","14953","0.0-1.0-1.0"
"null","<p id=""counter"" style=""text-align:center; color:white; font-size:30px"">+</p>","null","html-keyboard-response","3","15957","0.0-2.0-0.0"
"null","sounds/unintel_45/U_BKBQ0513.WAV","null","audio-keyboard-response","4","17714","0.0-2.0-1.0"
"1719.6799998637289","<p style=""color:white;"">Could you hear speech in the audio?</p><p style=""color:white;"">Press ""1"" for YES</p><p style=""color:white;"">Press ""0"" for NO</p>","48","html-keyboard-response","5","19435","0.0-2.0-2.0"
"null","<p id=""counter"" style=""text-align:center; color:white; font-size:30px"">+</p>","null","html-keyboard-response","6","20438","0.0-2.0-0.1"
"null","sounds/unintel_45/U_BKBQ0203.WAV","null","audio-keyboard-response","7","22224","0.0-2.0-1.1"
"342.0300001744181","<p style=""color:white;"">Could you hear speech in the audio?</p><p style=""color:white;"">Press ""1"" for YES</p><p style=""color:white;"">Press ""0"" for NO</p>","48","html-keyboard-response","8","22567","0.0-2.0-2.1"
"null","<p id=""counter"" style=""text-align:center; color:white; font-size:30px"">+</p>","null","html-keyboard-response","9","23568","0.0-2.0-0.2"
"null","sounds/unintel_45/U_BKBQ0406.WAV","null","audio-keyboard-response","10","25123","0.0-2.0-1.2"
"524.4549999479204","<p style=""color:white;"">Could you hear speech in the audio?</p><p style=""color:white;"">Press ""1"" for YES</p><p style=""color:white;"">Press ""0"" for NO</p>","48","html-keyboard-response","11","25649","0.0-2.0-2.2"
"null","<p id=""counter"" style=""text-align:center; color:white; font-size:30px"">+</p>","null","html-keyboard-response","12","26652","0.0-2.0-0.3"
"null","sounds/intel_45/I_BKBQ0612.wav","null","audio-keyboard-response","13","29113","0.0-2.0-1.3"
"581.389999948442","<p style=""color:white;"">Could you hear speech in the audio?</p><p style=""color:white;"">Press ""1"" for YES</p><p style=""color:white;"">Press ""0"" for NO</p>","48","html-keyboard-response","14","29696","0.0-2.0-2.3"
"null","<p id=""counter"" style=""text-align:center; color:white; font-size:30px"">+</p>","null","html-keyboard-response","15","30700","0.0-2.0-0.4"
"null","sounds/intel_45/I_BKBQ0203.wav","null","audio-keyboard-response","16","32953","0.0-2.0-1.4"
"380.959999980405","<p style=""color:white;"">Could you hear speech in the audio?</p><p style=""color:white;"">Press ""1"" for YES</p><p style=""color:white;"">Press ""0"" for NO</p>","49","html-keyboard-response","17","33336","0.0-2.0-2.4"
"null","<p id=""counter"" style=""text-align:center; color:white; font-size:30px"">+</p>","null","html-keyboard-response","18","34338","0.0-2.0-0.5"
"null","sounds/unintel_45/U_BKBQ0603.WAV","null","audio-keyboard-response","19","36384","0.0-2.0-1.5"
"409.01500009931624","<p style=""color:white;"">Could you hear speech in the audio?</p><p style=""color:white;"">Press ""1"" for YES</p><p style=""color:white;"">Press ""0"" for NO</p>","49","html-keyboard-response","20","36794","0.0-2.0-2.5"
"null","<p id=""counter"" style=""text-align:center; color:white; font-size:30px"">+</p>","null","html-keyboard-response","21","37797","0.0-2.0-0.6"
"null","sounds/unintel_45/U_BKBQ0102.WAV","null","audio-keyboard-response","22","39644","0.0-2.0-1.6"
"378.97499999962747","<p style=""color:white;"">Could you hear speech in the audio?</p><p style=""color:white;"">Press ""1"" for YES</p><p style=""color:white;"">Press ""0"" for NO</p>","48","html-keyboard-response","23","40024","0.0-2.0-2.6"
"null","<p id=""counter"" style=""text-align:center; color:white; font-size:30px"">+</p>","null","html-keyboard-response","24","41026","0.0-2.0-0.7"
"null","sounds/intel_45/I_BKBQ0407.wav","null","audio-keyboard-response","25","42784","0.0-2.0-1.7"
"799.2199999280274","<p style=""color:white;"">Could you hear speech in the audio?</p><p style=""color:white;"">Press ""1"" for YES</p><p style=""color:white;"">Press ""0"" for NO</p>","49","html-keyboard-response","26","43584","0.0-2.0-2.7"
"null","<p id=""counter"" style=""text-align:center; color:white; font-size:30px"">+</p>","null","html-keyboard-response","27","44586","0.0-2.0-0.8"
"null","sounds/intel_45/I_BKBQ0501.wav","null","audio-keyboard-response","28","46624","0.0-2.0-1.8"
"497.7849998977035","<p style=""color:white;"">Could you hear speech in the audio?</p><p style=""color:white;"">Press ""1"" for YES</p><p style=""color:white;"">Press ""0"" for NO</p>","48","html-keyboard-response","29","47122","0.0-2.0-2.8"
"null","<p id=""counter"" style=""text-align:center; color:white; font-size:30px"">+</p>","null","html-keyboard-response","30","48124","0.0-2.0-0.9"
"null","sounds/intel_45/I_BKBQ0214.wav","null","audio-keyboard-response","31","50013","0.0-2.0-1.9"
"282.8849998768419","<p style=""color:white;"">Could you hear speech in the audio?</p><p style=""color:white;"">Press ""1"" for YES</p><p style=""color:white;"">Press ""0"" for NO</p>","48","html-keyboard-response","32","50297","0.0-2.0-2.9"
"null","<p id=""counter"" style=""text-align:center; color:white; font-size:30px"">+</p>","null","html-keyboard-response","33","51299","0.0-2.0-0.10"
"null","sounds/intel_45/I_BKBQ0304.wav","null","audio-keyboard-response","34","53334","0.0-2.0-1.10"
"617.6799999084324","<p style=""color:white;"">Could you hear speech in the audio?</p><p style=""color:white;"">Press ""1"" for YES</p><p style=""color:white;"">Press ""0"" for NO</p>","49","html-keyboard-response","35","53953","0.0-2.0-2.10"
"null","<p id=""counter"" style=""text-align:center; color:white; font-size:30px"">+</p>","null","html-keyboard-response","36","54955","0.0-2.0-0.11"
"null","sounds/unintel_45/U_BKBQ0511.WAV","null","audio-keyboard-response","37","56742","0.0-2.0-1.11"
"396.16500004194677","<p style=""color:white;"">Could you hear speech in the audio?</p><p style=""color:white;"">Press ""1"" for YES</p><p style=""color:white;"">Press ""0"" for NO</p>","49","html-keyboard-response","38","57139","0.0-2.0-2.11"
"null","<p id=""counter"" style=""text-align:center; color:white; font-size:30px"">+</p>","null","html-keyboard-response","39","58141","0.0-2.0-0.12"
"null","sounds/intel_45/I_BKBQ0413.wav","null","audio-keyboard-response","40","60533","0.0-2.0-1.12"
"371.41999998129904","<p style=""color:white;"">Could you hear speech in the audio?</p><p style=""color:white;"">Press ""1"" for YES</p><p style=""color:white;"">Press ""0"" for NO</p>","48","html-keyboard-response","41","60905","0.0-2.0-2.12"
"null","<p id=""counter"" style=""text-align:center; color:white; font-size:30px"">+</p>","null","html-keyboard-response","42","61907","0.0-2.0-0.13"
"null","sounds/intel_45/I_BKBQ0115.wav","null","audio-keyboard-response","43","63874","0.0-2.0-1.13"
"397.8799998294562","<p style=""color:white;"">Could you hear speech in the audio?</p><p style=""color:white;"">Press ""1"" for YES</p><p style=""color:white;"">Press ""0"" for NO</p>","48","html-keyboard-response","44","64273","0.0-2.0-2.13"
"null","<p id=""counter"" style=""text-align:center; color:white; font-size:30px"">+</p>","null","html-keyboard-response","45","65275","0.0-2.0-0.14"
"null","sounds/intel_45/I_BKBQ0309.wav","null","audio-keyboard-response","46","67384","0.0-2.0-1.14"
"760.6699999887496","<p style=""color:white;"">Could you hear speech in the audio?</p><p style=""color:white;"">Press ""1"" for YES</p><p style=""color:white;"">Press ""0"" for NO</p>","49","html-keyboard-response","47","68146","0.0-2.0-2.14"
"null","<p id=""counter"" style=""text-align:center; color:white; font-size:30px"">+</p>","null","html-keyboard-response","48","69148","0.0-2.0-0.15"
"null","sounds/unintel_45/U_BKBQ0505.WAV","null","audio-keyboard-response","49","70794","0.0-2.0-1.15"
"365.38499989546835","<p style=""color:white;"">Could you hear speech in the audio?</p><p style=""color:white;"">Press ""1"" for YES</p><p style=""color:white;"">Press ""0"" for NO</p>","48","html-keyboard-response","50","71161","0.0-2.0-2.15"
"null","<p id=""counter"" style=""text-align:center; color:white; font-size:30px"">+</p>","null","html-keyboard-response","51","72162","0.0-2.0-0.16"
"null","sounds/intel_45/I_BKBQ0202.wav","null","audio-keyboard-response","52","73984","0.0-2.0-1.16"
"399.68499983660877","<p style=""color:white;"">Could you hear speech in the audio?</p><p style=""color:white;"">Press ""1"" for YES</p><p style=""color:white;"">Press ""0"" for NO</p>","49","html-keyboard-response","53","74385","0.0-2.0-2.16"
"null","<p id=""counter"" style=""text-align:center; color:white; font-size:30px"">+</p>","null","html-keyboard-response","54","75387","0.0-2.0-0.17"
"null","sounds/unintel_45/U_BKBQ0609.WAV","null","audio-keyboard-response","55","77103","0.0-2.0-1.17"
"1626.8799998797476","<p style=""color:white;"">Could you hear speech in the audio?</p><p style=""color:white;"">Press ""1"" for YES</p><p style=""color:white;"">Press ""0"" for NO</p>","48","html-keyboard-response","56","78731","0.0-2.0-2.17"
"null","<p id=""counter"" style=""text-align:center; color:white; font-size:30px"">+</p>","null","html-keyboard-response","57","79734","0.0-2.0-0.18"
"null","sounds/unintel_45/U_BKBQ0401.WAV","null","audio-keyboard-response","58","81614","0.0-2.0-1.18"
"313.39000002481043","<p style=""color:white;"">Could you hear speech in the audio?</p><p style=""color:white;"">Press ""1"" for YES</p><p style=""color:white;"">Press ""0"" for NO</p>","49","html-keyboard-response","59","81929","0.0-2.0-2.18"
"null","<p id=""counter"" style=""text-align:center; color:white; font-size:30px"">+</p>","null","html-keyboard-response","60","82931","0.0-2.0-0.19"
"null","sounds/unintel_45/U_BKBQ0201.WAV","null","audio-keyboard-response","61","84512","0.0-2.0-1.19"
"1600.3250000067055","<p style=""color:white;"">Could you hear speech in the audio?</p><p style=""color:white;"">Press ""1"" for YES</p><p style=""color:white;"">Press ""0"" for NO</p>","49","html-keyboard-response","62","86113","0.0-2.0-2.19"
"null","<p id=""counter"" style=""text-align:center; color:white; font-size:30px"">+</p>","null","html-keyboard-response","63","87115","0.0-2.0-0.20"
"null","sounds/unintel_45/U_BKBQ0612.WAV","null","audio-keyboard-response","64","89023","0.0-2.0-1.20"
"369.1450001206249","<p style=""color:white;"">Could you hear speech in the audio?</p><p style=""color:white;"">Press ""1"" for YES</p><p style=""color:white;"">Press ""0"" for NO</p>","48","html-keyboard-response","65","89393","0.0-2.0-2.20"
"null","<p id=""counter"" style=""text-align:center; color:white; font-size:30px"">+</p>","null","html-keyboard-response","66","90416","0.0-2.0-0.21"
"null","sounds/intel_45/I_BKBQ0215.wav","null","audio-keyboard-response","67","92023","0.0-2.0-1.21"
"840.8150000032037","<p style=""color:white;"">Could you hear speech in the audio?</p><p style=""color:white;"">Press ""1"" for YES</p><p style=""color:white;"">Press ""0"" for NO</p>","49","html-keyboard-response","68","92865","0.0-2.0-2.21"
"null","<p id=""counter"" style=""text-align:center; color:white; font-size:30px"">+</p>","null","html-keyboard-response","69","93867","0.0-2.0-0.22"
"null","sounds/unintel_45/U_BKBQ0110.WAV","null","audio-keyboard-response","70","95424","0.0-2.0-1.22"
"630.3099999204278","<p style=""color:white;"">Could you hear speech in the audio?</p><p style=""color:white;"">Press ""1"" for YES</p><p style=""color:white;"">Press ""0"" for NO</p>","49","html-keyboard-response","71","96056","0.0-2.0-2.22"
"null","<p id=""counter"" style=""text-align:center; color:white; font-size:30px"">+</p>","null","html-keyboard-response","72","97057","0.0-2.0-0.23"
"null","sounds/intel_45/I_BKBQ0512.wav","null","audio-keyboard-response","73","98814","0.0-2.0-1.23"
"1034.8249999806285","<p style=""color:white;"">Could you hear speech in the audio?</p><p style=""color:white;"">Press ""1"" for YES</p><p style=""color:white;"">Press ""0"" for NO</p>","49","html-keyboard-response","74","99850","0.0-2.0-2.23"
"null","<p id=""counter"" style=""text-align:center; color:white; font-size:30px"">+</p>","null","html-keyboard-response","75","100852","0.0-2.0-0.24"
"null","sounds/unintel_45/U_BKBQ0209.WAV","null","audio-keyboard-response","76","102582","0.0-2.0-1.24"
"2801.2900000903755","<p style=""color:white;"">Could you hear speech in the audio?</p><p style=""color:white;"">Press ""1"" for YES</p><p style=""color:white;"">Press ""0"" for NO</p>","48","html-keyboard-response","77","105384","0.0-2.0-2.24"
"null","<p id=""counter"" style=""text-align:center; color:white; font-size:30px"">+</p>","null","html-keyboard-response","78","106386","0.0-2.0-0.25"
"null","sounds/intel_45/I_BKBQ0315.wav","null","audio-keyboard-response","79","108494","0.0-2.0-1.25"
"417.9299999959767","<p style=""color:white;"">Could you hear speech in the audio?</p><p style=""color:white;"">Press ""1"" for YES</p><p style=""color:white;"">Press ""0"" for NO</p>","48","html-keyboard-response","80","108913","0.0-2.0-2.25"
"null","<p id=""counter"" style=""text-align:center; color:white; font-size:30px"">+</p>","null","html-keyboard-response","81","109916","0.0-2.0-0.26"
"null","sounds/unintel_45/U_BKBQ0308.WAV","null","audio-keyboard-response","82","111474","0.0-2.0-1.26"
"1039.1649999655783","<p style=""color:white;"">Could you hear speech in the audio?</p><p style=""color:white;"">Press ""1"" for YES</p><p style=""color:white;"">Press ""0"" for NO</p>","48","html-keyboard-response","83","112514","0.0-2.0-2.26"
"null","<p id=""counter"" style=""text-align:center; color:white; font-size:30px"">+</p>","null","html-keyboard-response","84","113517","0.0-2.0-0.27"
"null","sounds/intel_45/I_BKBQ0401.wav","null","audio-keyboard-response","85","115834","0.0-2.0-1.27"
"292.75000002235174","<p style=""color:white;"">Could you hear speech in the audio?</p><p style=""color:white;"">Press ""1"" for YES</p><p style=""color:white;"">Press ""0"" for NO</p>","49","html-keyboard-response","86","116129","0.0-2.0-2.27"
"null","<p id=""counter"" style=""text-align:center; color:white; font-size:30px"">+</p>","null","html-keyboard-response","87","117132","0.0-2.0-0.28"
"null","sounds/intel_45/I_BKBQ0513.wav","null","audio-keyboard-response","88","118823","0.0-2.0-1.28"
"426.4100000727922","<p style=""color:white;"">Could you hear speech in the audio?</p><p style=""color:white;"">Press ""1"" for YES</p><p style=""color:white;"">Press ""0"" for NO</p>","49","html-keyboard-response","89","119251","0.0-2.0-2.28"
"null","<p id=""counter"" style=""text-align:center; color:white; font-size:30px"">+</p>","null","html-keyboard-response","90","120253","0.0-2.0-0.29"
"null","sounds/intel_45/I_BKBQ0608.wav","null","audio-keyboard-response","91","122224","0.0-2.0-1.29"
"86.58999996259809","<p style=""color:white;"">Could you hear speech in the audio?</p><p style=""color:white;"">Press ""1"" for YES</p><p style=""color:white;"">Press ""0"" for NO</p>","48","html-keyboard-response","92","122312","0.0-2.0-2.29"
"null","<p id=""counter"" style=""text-align:center; color:white; font-size:30px"">+</p>","null","html-keyboard-response","93","123313","0.0-2.0-0.30"
"null","sounds/intel_45/I_BKBQ0607.wav","null","audio-keyboard-response","94","125634","0.0-2.0-1.30"
"974.6449999511242","<p style=""color:white;"">Could you hear speech in the audio?</p><p style=""color:white;"">Press ""1"" for YES</p><p style=""color:white;"">Press ""0"" for NO</p>","49","html-keyboard-response","95","126610","0.0-2.0-2.30"
"null","<p id=""counter"" style=""text-align:center; color:white; font-size:30px"">+</p>","null","html-keyboard-response","96","127612","0.0-2.0-0.31"
"null","sounds/unintel_45/U_BKBQ0312.WAV","null","audio-keyboard-response","97","129284","0.0-2.0-1.31"
"451.9750000908971","<p style=""color:white;"">Could you hear speech in the audio?</p><p style=""color:white;"">Press ""1"" for YES</p><p style=""color:white;"">Press ""0"" for NO</p>","48","html-keyboard-response","98","129737","0.0-2.0-2.31"
"null","<p id=""counter"" style=""text-align:center; color:white; font-size:30px"">+</p>","null","html-keyboard-response","99","130739","0.0-2.0-0.32"
"null","sounds/unintel_45/U_BKBQ0409.WAV","null","audio-keyboard-response","100","132714","0.0-2.0-1.32"
"277.66999998129904","<p style=""color:white;"">Could you hear speech in the audio?</p><p style=""color:white;"">Press ""1"" for YES</p><p style=""color:white;"">Press ""0"" for NO</p>","48","html-keyboard-response","101","132993","0.0-2.0-2.32"
"null","<p id=""counter"" style=""text-align:center; color:white; font-size:30px"">+</p>","null","html-keyboard-response","102","133995","0.0-2.0-0.33"
"null","sounds/unintel_45/U_BKBQ0315.WAV","null","audio-keyboard-response","103","135754","0.0-2.0-1.33"
"373.78000002354383","<p style=""color:white;"">Could you hear speech in the audio?</p><p style=""color:white;"">Press ""1"" for YES</p><p style=""color:white;"">Press ""0"" for NO</p>","49","html-keyboard-response","104","136129","0.0-2.0-2.33"
"null","<p id=""counter"" style=""text-align:center; color:white; font-size:30px"">+</p>","null","html-keyboard-response","105","137131","0.0-2.0-0.34"
"null","sounds/unintel_45/U_BKBQ0413.WAV","null","audio-keyboard-response","106","138994","0.0-2.0-1.34"
"956.9049999117851","<p style=""color:white;"">Could you hear speech in the audio?</p><p style=""color:white;"">Press ""1"" for YES</p><p style=""color:white;"">Press ""0"" for NO</p>","48","html-keyboard-response","107","139952","0.0-2.0-2.34"
"null","<p id=""counter"" style=""text-align:center; color:white; font-size:30px"">+</p>","null","html-keyboard-response","108","140954","0.0-2.0-0.35"
"null","sounds/unintel_45/U_BKBQ0109.WAV","null","audio-keyboard-response","109","142754","0.0-2.0-1.35"
"420.96500005573034","<p style=""color:white;"">Could you hear speech in the audio?</p><p style=""color:white;"">Press ""1"" for YES</p><p style=""color:white;"">Press ""0"" for NO</p>","48","html-keyboard-response","110","143176","0.0-2.0-2.35"
"null","<p id=""counter"" style=""text-align:center; color:white; font-size:30px"">+</p>","null","html-keyboard-response","111","144178","0.0-2.0-0.36"
"null","sounds/unintel_45/U_BKBQ0311.WAV","null","audio-keyboard-response","112","145794","0.0-2.0-1.36"
"548.9600000437349","<p style=""color:white;"">Could you hear speech in the audio?</p><p style=""color:white;"">Press ""1"" for YES</p><p style=""color:white;"">Press ""0"" for NO</p>","49","html-keyboard-response","113","146344","0.0-2.0-2.36"
"null","<p id=""counter"" style=""text-align:center; color:white; font-size:30px"">+</p>","null","html-keyboard-response","114","147346","0.0-2.0-0.37"
"null","sounds/intel_45/I_BKBQ0511.wav","null","audio-keyboard-response","115","149314","0.0-2.0-1.37"
"648.2700000051409","<p style=""color:white;"">Could you hear speech in the audio?</p><p style=""color:white;"">Press ""1"" for YES</p><p style=""color:white;"">Press ""0"" for NO</p>","49","html-keyboard-response","116","149963","0.0-2.0-2.37"
"null","<p id=""counter"" style=""text-align:center; color:white; font-size:30px"">+</p>","null","html-keyboard-response","117","150966","0.0-2.0-0.38"
"null","sounds/intel_45/I_BKBQ0311.wav","null","audio-keyboard-response","118","152994","0.0-2.0-1.38"
"684.7149999812245","<p style=""color:white;"">Could you hear speech in the audio?</p><p style=""color:white;"">Press ""1"" for YES</p><p style=""color:white;"">Press ""0"" for NO</p>","49","html-keyboard-response","119","153680","0.0-2.0-2.38"
"null","<p id=""counter"" style=""text-align:center; color:white; font-size:30px"">+</p>","null","html-keyboard-response","120","154682","0.0-2.0-0.39"
"null","sounds/intel_45/I_BKBQ0114.wav","null","audio-keyboard-response","121","156714","0.0-2.0-1.39"
"317.0199999585748","<p style=""color:white;"">Could you hear speech in the audio?</p><p style=""color:white;"">Press ""1"" for YES</p><p style=""color:white;"">Press ""0"" for NO</p>","48","html-keyboard-response","122","157032","0.0-2.0-2.39"
"null","<p id=""counter"" style=""text-align:center; color:white; font-size:30px"">+</p>","null","html-keyboard-response","123","158033","0.0-2.0-0.40"
"null","sounds/unintel_45/U_BKBQ0306.WAV","null","audio-keyboard-response","124","159913","0.0-2.0-1.40"
"662.1799999848008","<p style=""color:white;"">Could you hear speech in the audio?</p><p style=""color:white;"">Press ""1"" for YES</p><p style=""color:white;"">Press ""0"" for NO</p>","48","html-keyboard-response","125","160576","0.0-2.0-2.40"
"null","<p id=""counter"" style=""text-align:center; color:white; font-size:30px"">+</p>","null","html-keyboard-response","126","161577","0.0-2.0-0.41"
"null","sounds/unintel_45/U_BKBQ0103.WAV","null","audio-keyboard-response","127","163444","0.0-2.0-1.41"
"843.8750000204891","<p style=""color:white;"">Could you hear speech in the audio?</p><p style=""color:white;"">Press ""1"" for YES</p><p style=""color:white;"">Press ""0"" for NO</p>","48","html-keyboard-response","128","164289","0.0-2.0-2.41"
"null","<p id=""counter"" style=""text-align:center; color:white; font-size:30px"">+</p>","null","html-keyboard-response","129","165290","0.0-2.0-0.42"
"null","sounds/unintel_45/U_BKBQ0309.WAV","null","audio-keyboard-response","130","166944","0.0-2.0-1.42"
"495.545000070706","<p style=""color:white;"">Could you hear speech in the audio?</p><p style=""color:white;"">Press ""1"" for YES</p><p style=""color:white;"">Press ""0"" for NO</p>","48","html-keyboard-response","131","167441","0.0-2.0-2.42"
"null","<p id=""counter"" style=""text-align:center; color:white; font-size:30px"">+</p>","null","html-keyboard-response","132","168443","0.0-2.0-0.43"
"null","sounds/unintel_45/U_BKBQ0114.WAV","null","audio-keyboard-response","133","170072","0.0-2.0-1.43"
"327.40999991074204","<p style=""color:white;"">Could you hear speech in the audio?</p><p style=""color:white;"">Press ""1"" for YES</p><p style=""color:white;"">Press ""0"" for NO</p>","49","html-keyboard-response","134","170400","0.0-2.0-2.43"
"null","<p id=""counter"" style=""text-align:center; color:white; font-size:30px"">+</p>","null","html-keyboard-response","135","171401","0.0-2.0-0.44"
"null","sounds/intel_45/I_BKBQ0412.wav","null","audio-keyboard-response","136","173294","0.0-2.0-1.44"
"1451.8550001084805","<p style=""color:white;"">Could you hear speech in the audio?</p><p style=""color:white;"">Press ""1"" for YES</p><p style=""color:white;"">Press ""0"" for NO</p>","48","html-keyboard-response","137","174747","0.0-2.0-2.44"
"null","<p style=""color:white;"">You will now hear some short sentences.</p><p style=""color:white;"">You do not need to respond, just listen.</p>","null","html-keyboard-response","138","184751","0.0-3.0"
"null","sounds/unaltered_45/BKBQ2103.WAV","null","audio-keyboard-response","139","186274","0.0-4.0-0.0"
"null","<p id=""counter"" style=""text-align:center; color:white; font-size:30px"">+</p>","null","html-keyboard-response","140","186776","0.0-4.0-1.0"
"null","sounds/unaltered_45/BKBQ2106.WAV","null","audio-keyboard-response","141","188144","0.0-4.0-0.1"
"null","<p id=""counter"" style=""text-align:center; color:white; font-size:30px"">+</p>","null","html-keyboard-response","142","188646","0.0-4.0-1.1"
"null","sounds/unaltered_45/BKBQ0511.WAV","null","audio-keyboard-response","143","190103","0.0-4.0-0.2"
"null","<p id=""counter"" style=""text-align:center; color:white; font-size:30px"">+</p>","null","html-keyboard-response","144","190605","0.0-4.0-1.2"
"null","sounds/unaltered_45/BKBQ0115.WAV","null","audio-keyboard-response","145","192073","0.0-4.0-0.3"
"null","<p id=""counter"" style=""text-align:center; color:white; font-size:30px"">+</p>","null","html-keyboard-response","146","192574","0.0-4.0-1.3"
"null","sounds/unaltered_45/BKBQ0501.WAV","null","audio-keyboard-response","147","194104","0.0-4.0-0.4"
"null","<p id=""counter"" style=""text-align:center; color:white; font-size:30px"">+</p>","null","html-keyboard-response","148","194606","0.0-4.0-1.4"
"null","sounds/unaltered_45/BKBQ0110.WAV","null","audio-keyboard-response","149","195784","0.0-4.0-0.5"
"null","<p id=""counter"" style=""text-align:center; color:white; font-size:30px"">+</p>","null","html-keyboard-response","150","196286","0.0-4.0-1.5"
"null","sounds/unaltered_45/BKBQ0112.WAV","null","audio-keyboard-response","151","197914","0.0-4.0-0.6"
"null","<p id=""counter"" style=""text-align:center; color:white; font-size:30px"">+</p>","null","html-keyboard-response","152","198416","0.0-4.0-1.6"
"null","sounds/unaltered_45/BKBQ0214.WAV","null","audio-keyboard-response","153","199843","0.0-4.0-0.7"
"null","<p id=""counter"" style=""text-align:center; color:white; font-size:30px"">+</p>","null","html-keyboard-response","154","200344","0.0-4.0-1.7"
"null","sounds/unaltered_45/BKBQ1913.WAV","null","audio-keyboard-response","155","201582","0.0-4.0-0.8"
"null","<p id=""counter"" style=""text-align:center; color:white; font-size:30px"">+</p>","null","html-keyboard-response","156","202084","0.0-4.0-1.8"
"null","sounds/unaltered_45/BKBQ0316.WAV","null","audio-keyboard-response","157","203714","0.0-4.0-0.9"
"null","<p id=""counter"" style=""text-align:center; color:white; font-size:30px"">+</p>","null","html-keyboard-response","158","204217","0.0-4.0-1.9"
"null","sounds/unaltered_45/BKBQ2004.WAV","null","audio-keyboard-response","159","205454","0.0-4.0-0.10"
"null","<p id=""counter"" style=""text-align:center; color:white; font-size:30px"">+</p>","null","html-keyboard-response","160","205956","0.0-4.0-1.10"
"null","sounds/unaltered_45/BKBQ2016.WAV","null","audio-keyboard-response","161","207632","0.0-4.0-0.11"
"null","<p id=""counter"" style=""text-align:center; color:white; font-size:30px"">+</p>","null","html-keyboard-response","162","208134","0.0-4.0-1.11"
"null","sounds/unaltered_45/BKBQ1807.WAV","null","audio-keyboard-response","163","209674","0.0-4.0-0.12"
"null","<p id=""counter"" style=""text-align:center; color:white; font-size:30px"">+</p>","null","html-keyboard-response","164","210177","0.0-4.0-1.12"
"null","sounds/unaltered_45/BKBQ1706.WAV","null","audio-keyboard-response","165","211444","0.0-4.0-0.13"
"null","<p id=""counter"" style=""text-align:center; color:white; font-size:30px"">+</p>","null","html-keyboard-response","166","211946","0.0-4.0-1.13"
"null","sounds/unaltered_45/BKBQ1714.WAV","null","audio-keyboard-response","167","213294","0.0-4.0-0.14"
"null","<p id=""counter"" style=""text-align:center; color:white; font-size:30px"">+</p>","null","html-keyboard-response","168","213797","0.0-4.0-1.14"
"null","sounds/unaltered_45/BKBQ0206.WAV","null","audio-keyboard-response","169","215414","0.0-4.0-0.15"
"null","<p id=""counter"" style=""text-align:center; color:white; font-size:30px"">+</p>","null","html-keyboard-response","170","215916","0.0-4.0-1.15"
"null","sounds/unaltered_45/BKBQ2102.WAV","null","audio-keyboard-response","171","217573","0.0-4.0-0.16"
"null","<p id=""counter"" style=""text-align:center; color:white; font-size:30px"">+</p>","null","html-keyboard-response","172","218074","0.0-4.0-1.16"
"null","sounds/unaltered_45/BKBQ1910.WAV","null","audio-keyboard-response","173","219573","0.0-4.0-0.17"
"null","<p id=""counter"" style=""text-align:center; color:white; font-size:30px"">+</p>","null","html-keyboard-response","174","220074","0.0-4.0-1.17"
"null","sounds/unaltered_45/BKBQ0411.WAV","null","audio-keyboard-response","175","221473","0.0-4.0-0.18"
"null","<p id=""counter"" style=""text-align:center; color:white; font-size:30px"">+</p>","null","html-keyboard-response","176","221975","0.0-4.0-1.18"
"null","sounds/unaltered_45/BKBQ1912.WAV","null","audio-keyboard-response","177","223952","0.0-4.0-0.19"
"null","<p id=""counter"" style=""text-align:center; color:white; font-size:30px"">+</p>","null","html-keyboard-response","178","224454","0.0-4.0-1.19"
"null","sounds/unaltered_45/BKBQ2010.WAV","null","audio-keyboard-response","179","225673","0.0-4.0-0.20"
"null","<p id=""counter"" style=""text-align:center; color:white; font-size:30px"">+</p>","null","html-keyboard-response","180","226176","0.0-4.0-1.20"
"null","sounds/unaltered_45/BKBQ0304.WAV","null","audio-keyboard-response","181","227684","0.0-4.0-0.21"
"null","<p id=""counter"" style=""text-align:center; color:white; font-size:30px"">+</p>","null","html-keyboard-response","182","228186","0.0-4.0-1.21"
"null","sounds/unaltered_45/BKBQ0311.WAV","null","audio-keyboard-response","183","229713","0.0-4.0-0.22"
"null","<p id=""counter"" style=""text-align:center; color:white; font-size:30px"">+</p>","null","html-keyboard-response","184","230215","0.0-4.0-1.22"
"null","sounds/unaltered_45/BKBQ0612.WAV","null","audio-keyboard-response","185","232053","0.0-4.0-0.23"
"null","<p id=""counter"" style=""text-align:center; color:white; font-size:30px"">+</p>","null","html-keyboard-response","186","232554","0.0-4.0-1.23"
"null","sounds/unaltered_45/BKBQ0513.WAV","null","audio-keyboard-response","187","233823","0.0-4.0-0.24"
"null","<p id=""counter"" style=""text-align:center; color:white; font-size:30px"">+</p>","null","html-keyboard-response","188","234326","0.0-4.0-1.24"
"null","sounds/unaltered_45/BKBQ0413.WAV","null","audio-keyboard-response","189","236082","0.0-4.0-0.25"
"null","<p id=""counter"" style=""text-align:center; color:white; font-size:30px"">+</p>","null","html-keyboard-response","190","236584","0.0-4.0-1.25"
"null","sounds/unaltered_45/BKBQ0114.WAV","null","audio-keyboard-response","191","238082","0.0-4.0-0.26"
"null","<p id=""counter"" style=""text-align:center; color:white; font-size:30px"">+</p>","null","html-keyboard-response","192","238584","0.0-4.0-1.26"
"null","sounds/unaltered_45/BKBQ0613.WAV","null","audio-keyboard-response","193","239923","0.0-4.0-0.27"
"null","<p id=""counter"" style=""text-align:center; color:white; font-size:30px"">+</p>","null","html-keyboard-response","194","240424","0.0-4.0-1.27"
"null","sounds/unaltered_45/BKBQ2008.WAV","null","audio-keyboard-response","195","241994","0.0-4.0-0.28"
"null","<p id=""counter"" style=""text-align:center; color:white; font-size:30px"">+</p>","null","html-keyboard-response","196","242496","0.0-4.0-1.28"
"null","sounds/unaltered_45/BKBQ1815.WAV","null","audio-keyboard-response","197","244033","0.0-4.0-0.29"
"null","<p id=""counter"" style=""text-align:center; color:white; font-size:30px"">+</p>","null","html-keyboard-response","198","244534","0.0-4.0-1.29"
"null","sounds/unaltered_45/BKBQ2001.WAV","null","audio-keyboard-response","199","245964","0.0-4.0-0.30"
"null","<p id=""counter"" style=""text-align:center; color:white; font-size:30px"">+</p>","null","html-keyboard-response","200","246466","0.0-4.0-1.30"
"null","sounds/unaltered_45/BKBQ1704.WAV","null","audio-keyboard-response","201","247773","0.0-4.0-0.31"
"null","<p id=""counter"" style=""text-align:center; color:white; font-size:30px"">+</p>","null","html-keyboard-response","202","248275","0.0-4.0-1.31"
"null","sounds/unaltered_45/BKBQ0315.WAV","null","audio-keyboard-response","203","249843","0.0-4.0-0.32"
"null","<p id=""counter"" style=""text-align:center; color:white; font-size:30px"">+</p>","null","html-keyboard-response","204","250345","0.0-4.0-1.32"
"null","sounds/unaltered_45/BKBQ2011.WAV","null","audio-keyboard-response","205","251734","0.0-4.0-0.33"
"null","<p id=""counter"" style=""text-align:center; color:white; font-size:30px"">+</p>","null","html-keyboard-response","206","252235","0.0-4.0-1.33"
"null","sounds/unaltered_45/BKBQ1916.WAV","null","audio-keyboard-response","207","253983","0.0-4.0-0.34"
"null","<p id=""counter"" style=""text-align:center; color:white; font-size:30px"">+</p>","null","html-keyboard-response","208","254484","0.0-4.0-1.34"
"null","sounds/unaltered_45/BKBQ2112.WAV","null","audio-keyboard-response","209","256122","0.0-4.0-0.35"
"null","<p id=""counter"" style=""text-align:center; color:white; font-size:30px"">+</p>","null","html-keyboard-response","210","256625","0.0-4.0-1.35"
"null","sounds/unaltered_45/BKBQ2108.WAV","null","audio-keyboard-response","211","258203","0.0-4.0-0.36"
"null","<p id=""counter"" style=""text-align:center; color:white; font-size:30px"">+</p>","null","html-keyboard-response","212","258705","0.0-4.0-1.36"
"null","sounds/unaltered_45/BKBQ0309.WAV","null","audio-keyboard-response","213","260263","0.0-4.0-0.37"
"null","<p id=""counter"" style=""text-align:center; color:white; font-size:30px"">+</p>","null","html-keyboard-response","214","260765","0.0-4.0-1.37"
"null","sounds/unaltered_45/BKBQ0308.WAV","null","audio-keyboard-response","215","262294","0.0-4.0-0.38"
"null","<p id=""counter"" style=""text-align:center; color:white; font-size:30px"">+</p>","null","html-keyboard-response","216","262797","0.0-4.0-1.38"
"null","sounds/unaltered_45/BKBQ0505.WAV","null","audio-keyboard-response","217","264324","0.0-4.0-0.39"
"null","<p id=""counter"" style=""text-align:center; color:white; font-size:30px"">+</p>","null","html-keyboard-response","218","264826","0.0-4.0-1.39"
"null","sounds/unaltered_45/BKBQ0416.WAV","null","audio-keyboard-response","219","266483","0.0-4.0-0.40"
"null","<p id=""counter"" style=""text-align:center; color:white; font-size:30px"">+</p>","null","html-keyboard-response","220","266986","0.0-4.0-1.40"
"null","sounds/unaltered_45/BKBQ1803.WAV","null","audio-keyboard-response","221","268413","0.0-4.0-0.41"
"null","<p id=""counter"" style=""text-align:center; color:white; font-size:30px"">+</p>","null","html-keyboard-response","222","268916","0.0-4.0-1.41"
"null","sounds/unaltered_45/BKBQ0609.WAV","null","audio-keyboard-response","223","270262","0.0-4.0-0.42"
"null","<p id=""counter"" style=""text-align:center; color:white; font-size:30px"">+</p>","null","html-keyboard-response","224","270764","0.0-4.0-1.42"
"null","sounds/unaltered_45/BKBQ0109.WAV","null","audio-keyboard-response","225","272263","0.0-4.0-0.43"
"null","<p id=""counter"" style=""text-align:center; color:white; font-size:30px"">+</p>","null","html-keyboard-response","226","272765","0.0-4.0-1.43"
"null","sounds/unaltered_45/BKBQ2013.WAV","null","audio-keyboard-response","227","274214","0.0-4.0-0.44"
"null","<p id=""counter"" style=""text-align:center; color:white; font-size:30px"">+</p>","null","html-keyboard-response","228","274716","0.0-4.0-1.44"
"null","sounds/unaltered_45/BKBQ1904.WAV","null","audio-keyboard-response","229","276344","0.0-4.0-0.45"
"null","<p id=""counter"" style=""text-align:center; color:white; font-size:30px"">+</p>","null","html-keyboard-response","230","276846","0.0-4.0-1.45"
"null","sounds/unaltered_45/BKBQ0514.WAV","null","audio-keyboard-response","231","278552","0.0-4.0-0.46"
"null","<p id=""counter"" style=""text-align:center; color:white; font-size:30px"">+</p>","null","html-keyboard-response","232","279053","0.0-4.0-1.46"
"null","sounds/unaltered_45/BKBQ1711.WAV","null","audio-keyboard-response","233","280484","0.0-4.0-0.47"
"null","<p id=""counter"" style=""text-align:center; color:white; font-size:30px"">+</p>","null","html-keyboard-response","234","280986","0.0-4.0-1.47"
"null","sounds/unaltered_45/BKBQ2014.WAV","null","audio-keyboard-response","235","282463","0.0-4.0-0.48"
"null","<p id=""counter"" style=""text-align:center; color:white; font-size:30px"">+</p>","null","html-keyboard-response","236","282965","0.0-4.0-1.48"
"null","sounds/unaltered_45/BKBQ2116.WAV","null","audio-keyboard-response","237","284144","0.0-4.0-0.49"
"null","<p id=""counter"" style=""text-align:center; color:white; font-size:30px"">+</p>","null","html-keyboard-response","238","284647","0.0-4.0-1.49"
"null","sounds/unaltered_45/BKBQ1915.WAV","null","audio-keyboard-response","239","286403","0.0-4.0-0.50"
"null","<p id=""counter"" style=""text-align:center; color:white; font-size:30px"">+</p>","null","html-keyboard-response","240","286905","0.0-4.0-1.50"
"null","sounds/unaltered_45/BKBQ0608.WAV","null","audio-keyboard-response","241","288363","0.0-4.0-0.51"
"null","<p id=""counter"" style=""text-align:center; color:white; font-size:30px"">+</p>","null","html-keyboard-response","242","288866","0.0-4.0-1.51"
"null","sounds/unaltered_45/BKBQ0102.WAV","null","audio-keyboard-response","243","290343","0.0-4.0-0.52"
"null","<p id=""counter"" style=""text-align:center; color:white; font-size:30px"">+</p>","null","html-keyboard-response","244","290845","0.0-4.0-1.52"
"null","sounds/unaltered_45/BKBQ0407.WAV","null","audio-keyboard-response","245","292173","0.0-4.0-0.53"
"null","<p id=""counter"" style=""text-align:center; color:white; font-size:30px"">+</p>","null","html-keyboard-response","246","292675","0.0-4.0-1.53"
"null","sounds/unaltered_45/BKBQ1816.WAV","null","audio-keyboard-response","247","294283","0.0-4.0-0.54"
"null","<p id=""counter"" style=""text-align:center; color:white; font-size:30px"">+</p>","null","html-keyboard-response","248","294785","0.0-4.0-1.54"
"null","sounds/unaltered_45/BKBQ0307.WAV","null","audio-keyboard-response","249","296562","0.0-4.0-0.55"
"null","<p id=""counter"" style=""text-align:center; color:white; font-size:30px"">+</p>","null","html-keyboard-response","250","297064","0.0-4.0-1.55"
"null","sounds/unaltered_45/BKBQ1710.WAV","null","audio-keyboard-response","251","298642","0.0-4.0-0.56"
"null","<p id=""counter"" style=""text-align:center; color:white; font-size:30px"">+</p>","null","html-keyboard-response","252","299144","0.0-4.0-1.56"
"null","sounds/unaltered_45/BKBQ2012.WAV","null","audio-keyboard-response","253","300734","0.0-4.0-0.57"
"null","<p id=""counter"" style=""text-align:center; color:white; font-size:30px"">+</p>","null","html-keyboard-response","254","301237","0.0-4.0-1.57"
"null","sounds/unaltered_45/BKBQ0607.WAV","null","audio-keyboard-response","255","302983","0.0-4.0-0.58"
"null","<p id=""counter"" style=""text-align:center; color:white; font-size:30px"">+</p>","null","html-keyboard-response","256","303485","0.0-4.0-1.58"
"null","sounds/unaltered_45/BKBQ2002.WAV","null","audio-keyboard-response","257","304343","0.0-4.0-0.59"
"null","<p id=""counter"" style=""text-align:center; color:white; font-size:30px"">+</p>","null","html-keyboard-response","258","304844","0.0-4.0-1.59"
"null","sounds/unaltered_45/BKBQ0306.WAV","null","audio-keyboard-response","259","306213","0.0-4.0-0.60"
"null","<p id=""counter"" style=""text-align:center; color:white; font-size:30px"">+</p>","null","html-keyboard-response","260","306716","0.0-4.0-1.60"
"null","sounds/unaltered_45/BKBQ0406.WAV","null","audio-keyboard-response","261","308243","0.0-4.0-0.61"
"null","<p id=""counter"" style=""text-align:center; color:white; font-size:30px"">+</p>","null","html-keyboard-response","262","308745","0.0-4.0-1.61"
"null","sounds/unaltered_45/BKBQ2109.WAV","null","audio-keyboard-response","263","310483","0.0-4.0-0.62"
"null","<p id=""counter"" style=""text-align:center; color:white; font-size:30px"">+</p>","null","html-keyboard-response","264","310985","0.0-4.0-1.62"
"null","sounds/unaltered_45/BKBQ1902.WAV","null","audio-keyboard-response","265","312513","0.0-4.0-0.63"
"null","<p id=""counter"" style=""text-align:center; color:white; font-size:30px"">+</p>","null","html-keyboard-response","266","313015","0.0-4.0-1.63"
"null","sounds/unaltered_45/BKBQ0203.WAV","null","audio-keyboard-response","267","314673","0.0-4.0-0.64"
"null","<p id=""counter"" style=""text-align:center; color:white; font-size:30px"">+</p>","null","html-keyboard-response","268","315176","0.0-4.0-1.64"
"null","sounds/unaltered_45/BKBQ1801.WAV","null","audio-keyboard-response","269","316734","0.0-4.0-0.65"
"null","<p id=""counter"" style=""text-align:center; color:white; font-size:30px"">+</p>","null","html-keyboard-response","270","317237","0.0-4.0-1.65"
"null","sounds/unaltered_45/BKBQ0209.WAV","null","audio-keyboard-response","271","318673","0.0-4.0-0.66"
"null","<p id=""counter"" style=""text-align:center; color:white; font-size:30px"">+</p>","null","html-keyboard-response","272","319176","0.0-4.0-1.66"
"null","sounds/unaltered_45/BKBQ1702.WAV","null","audio-keyboard-response","273","320672","0.0-4.0-0.67"
"null","<p id=""counter"" style=""text-align:center; color:white; font-size:30px"">+</p>","null","html-keyboard-response","274","321173","0.0-4.0-1.67"
"null","sounds/unaltered_45/BKBQ1715.WAV","null","audio-keyboard-response","275","322733","0.0-4.0-0.68"
"null","<p id=""counter"" style=""text-align:center; color:white; font-size:30px"">+</p>","null","html-keyboard-response","276","323234","0.0-4.0-1.68"
"null","sounds/unaltered_45/BKBQ0603.WAV","null","audio-keyboard-response","277","324742","0.0-4.0-0.69"
"null","<p id=""counter"" style=""text-align:center; color:white; font-size:30px"">+</p>","null","html-keyboard-response","278","325244","0.0-4.0-1.69"
"null","sounds/unaltered_45/BKBQ0412.WAV","null","audio-keyboard-response","279","326661","0.0-4.0-0.70"
"null","<p id=""counter"" style=""text-align:center; color:white; font-size:30px"">+</p>","null","html-keyboard-response","280","327163","0.0-4.0-1.70"
"null","sounds/unaltered_45/BKBQ0202.WAV","null","audio-keyboard-response","281","328511","0.0-4.0-0.71"
"null","<p id=""counter"" style=""text-align:center; color:white; font-size:30px"">+</p>","null","html-keyboard-response","282","329012","0.0-4.0-1.71"
"null","sounds/unaltered_45/BKBQ0401.WAV","null","audio-keyboard-response","283","330743","0.0-4.0-0.72"
"null","<p id=""counter"" style=""text-align:center; color:white; font-size:30px"">+</p>","null","html-keyboard-response","284","331246","0.0-4.0-1.72"
"null","sounds/unaltered_45/BKBQ0215.WAV","null","audio-keyboard-response","285","332454","0.0-4.0-0.73"
"null","<p id=""counter"" style=""text-align:center; color:white; font-size:30px"">+</p>","null","html-keyboard-response","286","332955","0.0-4.0-1.73"
"null","sounds/unaltered_45/BKBQ0312.WAV","null","audio-keyboard-response","287","334473","0.0-4.0-0.74"
"null","<p id=""counter"" style=""text-align:center; color:white; font-size:30px"">+</p>","null","html-keyboard-response","288","334976","0.0-4.0-1.74"
"null","sounds/unaltered_45/BKBQ0106.WAV","null","audio-keyboard-response","289","336402","0.0-4.0-0.75"
"null","<p id=""counter"" style=""text-align:center; color:white; font-size:30px"">+</p>","null","html-keyboard-response","290","336904","0.0-4.0-1.75"
"null","sounds/unaltered_45/BKBQ1905.WAV","null","audio-keyboard-response","291","338252","0.0-4.0-0.76"
"null","<p id=""counter"" style=""text-align:center; color:white; font-size:30px"">+</p>","null","html-keyboard-response","292","338753","0.0-4.0-1.76"
"null","sounds/unaltered_45/BKBQ1808.WAV","null","audio-keyboard-response","293","340123","0.0-4.0-0.77"
"null","<p id=""counter"" style=""text-align:center; color:white; font-size:30px"">+</p>","null","html-keyboard-response","294","340626","0.0-4.0-1.77"
"null","sounds/unaltered_45/BKBQ0103.WAV","null","audio-keyboard-response","295","342153","0.0-4.0-0.78"
"null","<p id=""counter"" style=""text-align:center; color:white; font-size:30px"">+</p>","null","html-keyboard-response","296","342656","0.0-4.0-1.78"
"null","sounds/unaltered_45/BKBQ1914.WAV","null","audio-keyboard-response","297","344103","0.0-4.0-0.79"
"null","<p id=""counter"" style=""text-align:center; color:white; font-size:30px"">+</p>","null","html-keyboard-response","298","344604","0.0-4.0-1.79"
"null","sounds/unaltered_45/BKBQ0205.WAV","null","audio-keyboard-response","299","345993","0.0-4.0-0.80"
"null","<p id=""counter"" style=""text-align:center; color:white; font-size:30px"">+</p>","null","html-keyboard-response","300","346495","0.0-4.0-1.80"
"null","sounds/unaltered_45/BKBQ2107.WAV","null","audio-keyboard-response","301","347653","0.0-4.0-0.81"
"null","<p id=""counter"" style=""text-align:center; color:white; font-size:30px"">+</p>","null","html-keyboard-response","302","348154","0.0-4.0-1.81"
"null","sounds/unaltered_45/BKBQ1707.WAV","null","audio-keyboard-response","303","349504","0.0-4.0-0.82"
"null","<p id=""counter"" style=""text-align:center; color:white; font-size:30px"">+</p>","null","html-keyboard-response","304","350006","0.0-4.0-1.82"
"null","sounds/unaltered_45/BKBQ2105.WAV","null","audio-keyboard-response","305","351423","0.0-4.0-0.83"
"null","<p id=""counter"" style=""text-align:center; color:white; font-size:30px"">+</p>","null","html-keyboard-response","306","351925","0.0-4.0-1.83"
"null","sounds/unaltered_45/BKBQ1814.WAV","null","audio-keyboard-response","307","353533","0.0-4.0-0.84"
"null","<p id=""counter"" style=""text-align:center; color:white; font-size:30px"">+</p>","null","html-keyboard-response","308","354034","0.0-4.0-1.84"
"null","sounds/unaltered_45/BKBQ2114.WAV","null","audio-keyboard-response","309","355654","0.0-4.0-0.85"
"null","<p id=""counter"" style=""text-align:center; color:white; font-size:30px"">+</p>","null","html-keyboard-response","310","356156","0.0-4.0-1.85"
"null","sounds/unaltered_45/BKBQ2111.WAV","null","audio-keyboard-response","311","357542","0.0-4.0-0.86"
"null","<p id=""counter"" style=""text-align:center; color:white; font-size:30px"">+</p>","null","html-keyboard-response","312","358043","0.0-4.0-1.86"
"null","sounds/unaltered_45/BKBQ0201.WAV","null","audio-keyboard-response","313","359473","0.0-4.0-0.87"
"null","<p id=""counter"" style=""text-align:center; color:white; font-size:30px"">+</p>","null","html-keyboard-response","314","359976","0.0-4.0-1.87"
"null","sounds/unaltered_45/BKBQ0512.WAV","null","audio-keyboard-response","315","361303","0.0-4.0-0.88"
"null","<p id=""counter"" style=""text-align:center; color:white; font-size:30px"">+</p>","null","html-keyboard-response","316","361805","0.0-4.0-1.88"
"null","sounds/unaltered_45/BKBQ0409.WAV","null","audio-keyboard-response","317","363143","0.0-4.0-0.89"
"null","<p id=""counter"" style=""text-align:center; color:white; font-size:30px"">+</p>","null","html-keyboard-response","318","363645","0.0-4.0-1.89"
"null","<p style=""color:white;"">We will now begin the second test block.</p>","null","html-keyboard-response","319","373647","0.0-5.0"
"null","<p id=""counter"" style=""text-align:center; color:white; font-size:30px"">+</p>","null","html-keyboard-response","320","374649","0.0-6.0-0.0"
"null","sounds/intel_45/I_BKBQ0312.wav","null","audio-keyboard-response","321","376673","0.0-6.0-1.0"
"2405.710000079125","<p style=""color:white;"">Could you hear speech in the audio?</p><p style=""color:white;"">Press ""1"" for YES</p><p style=""color:white;"">Press ""0"" for NO</p>","49","html-keyboard-response","322","379080","0.0-6.0-2.0"
"null","<p id=""counter"" style=""text-align:center; color:white; font-size:30px"">+</p>","null","html-keyboard-response","323","380081","0.0-6.0-0.1"
"null","sounds/unintel_45/U_BKBQ0608.WAV","null","audio-keyboard-response","324","382072","0.0-6.0-1.1"
"807.679999852553","<p style=""color:white;"">Could you hear speech in the audio?</p><p style=""color:white;"">Press ""1"" for YES</p><p style=""color:white;"">Press ""0"" for NO</p>","48","html-keyboard-response","325","382880","0.0-6.0-2.1"
"null","<p id=""counter"" style=""text-align:center; color:white; font-size:30px"">+</p>","null","html-keyboard-response","326","383882","0.0-6.0-0.2"
"null","sounds/intel_45/I_BKBQ0416.wav","null","audio-keyboard-response","327","386134","0.0-6.0-1.2"
"3378.9249998517334","<p style=""color:white;"">Could you hear speech in the audio?</p><p style=""color:white;"">Press ""1"" for YES</p><p style=""color:white;"">Press ""0"" for NO</p>","48","html-keyboard-response","328","389514","0.0-6.0-2.2"
"null","<p id=""counter"" style=""text-align:center; color:white; font-size:30px"">+</p>","null","html-keyboard-response","329","390517","0.0-6.0-0.3"
"null","sounds/intel_45/I_BKBQ0613.wav","null","audio-keyboard-response","330","392274","0.0-6.0-1.3"
"2205.739999888465","<p style=""color:white;"">Could you hear speech in the audio?</p><p style=""color:white;"">Press ""1"" for YES</p><p style=""color:white;"">Press ""0"" for NO</p>","49","html-keyboard-response","331","394481","0.0-6.0-2.3"
"null","<p id=""counter"" style=""text-align:center; color:white; font-size:30px"">+</p>","null","html-keyboard-response","332","395484","0.0-6.0-0.4"
"null","sounds/intel_45/I_BKBQ0307.wav","null","audio-keyboard-response","333","397863","0.0-6.0-1.4"
"512.0599998626858","<p style=""color:white;"">Could you hear speech in the audio?</p><p style=""color:white;"">Press ""1"" for YES</p><p style=""color:white;"">Press ""0"" for NO</p>","48","html-keyboard-response","334","398376","0.0-6.0-2.4"
"null","<p id=""counter"" style=""text-align:center; color:white; font-size:30px"">+</p>","null","html-keyboard-response","335","399378","0.0-6.0-0.5"
"null","sounds/unintel_45/U_BKBQ0407.WAV","null","audio-keyboard-response","336","401134","0.0-6.0-1.5"
"1586.020000046119","<p style=""color:white;"">Could you hear speech in the audio?</p><p style=""color:white;"">Press ""1"" for YES</p><p style=""color:white;"">Press ""0"" for NO</p>","48","html-keyboard-response","337","402722","0.0-6.0-2.5"
"null","<p id=""counter"" style=""text-align:center; color:white; font-size:30px"">+</p>","null","html-keyboard-response","338","403723","0.0-6.0-0.6"
"null","sounds/unintel_45/U_BKBQ0411.WAV","null","audio-keyboard-response","339","405414","0.0-6.0-1.6"
"369.4499998819083","<p style=""color:white;"">Could you hear speech in the audio?</p><p style=""color:white;"">Press ""1"" for YES</p><p style=""color:white;"">Press ""0"" for NO</p>","49","html-keyboard-response","340","405785","0.0-6.0-2.6"
"null","<p id=""counter"" style=""text-align:center; color:white; font-size:30px"">+</p>","null","html-keyboard-response","341","406787","0.0-6.0-0.7"
"null","sounds/unintel_45/U_BKBQ0512.WAV","null","audio-keyboard-response","342","408462","0.0-6.0-1.7"
"929.6399999875575","<p style=""color:white;"">Could you hear speech in the audio?</p><p style=""color:white;"">Press ""1"" for YES</p><p style=""color:white;"">Press ""0"" for NO</p>","48","html-keyboard-response","343","409393","0.0-6.0-2.7"
"null","<p id=""counter"" style=""text-align:center; color:white; font-size:30px"">+</p>","null","html-keyboard-response","344","410395","0.0-6.0-0.8"
"null","sounds/intel_45/I_BKBQ0306.wav","null","audio-keyboard-response","345","412224","0.0-6.0-1.8"
"478.8049999624491","<p style=""color:white;"">Could you hear speech in the audio?</p><p style=""color:white;"">Press ""1"" for YES</p><p style=""color:white;"">Press ""0"" for NO</p>","48","html-keyboard-response","346","412704","0.0-6.0-2.8"
"null","<p id=""counter"" style=""text-align:center; color:white; font-size:30px"">+</p>","null","html-keyboard-response","347","413707","0.0-6.0-0.9"
"null","sounds/intel_45/I_BKBQ0205.wav","null","audio-keyboard-response","348","415533","0.0-6.0-1.9"
"668.1099999696016","<p style=""color:white;"">Could you hear speech in the audio?</p><p style=""color:white;"">Press ""1"" for YES</p><p style=""color:white;"">Press ""0"" for NO</p>","49","html-keyboard-response","349","416202","0.0-6.0-2.9"
"null","<p id=""counter"" style=""text-align:center; color:white; font-size:30px"">+</p>","null","html-keyboard-response","350","417205","0.0-6.0-0.10"
"null","sounds/intel_45/I_BKBQ0106.wav","null","audio-keyboard-response","351","419094","0.0-6.0-1.10"
"321.7549999244511","<p style=""color:white;"">Could you hear speech in the audio?</p><p style=""color:white;"">Press ""1"" for YES</p><p style=""color:white;"">Press ""0"" for NO</p>","48","html-keyboard-response","352","419417","0.0-6.0-2.10"
"null","<p id=""counter"" style=""text-align:center; color:white; font-size:30px"">+</p>","null","html-keyboard-response","353","420419","0.0-6.0-0.11"
"null","sounds/intel_45/I_BKBQ0112.wav","null","audio-keyboard-response","354","422593","0.0-6.0-1.11"
"335.2099999319762","<p style=""color:white;"">Could you hear speech in the audio?</p><p style=""color:white;"">Press ""1"" for YES</p><p style=""color:white;"">Press ""0"" for NO</p>","49","html-keyboard-response","355","422928","0.0-6.0-2.11"
"null","<p id=""counter"" style=""text-align:center; color:white; font-size:30px"">+</p>","null","html-keyboard-response","356","423933","0.0-6.0-0.12"
"null","sounds/unintel_45/U_BKBQ0307.WAV","null","audio-keyboard-response","357","425914","0.0-6.0-1.12"
"5.600000033155084","<p style=""color:white;"">Could you hear speech in the audio?</p><p style=""color:white;"">Press ""1"" for YES</p><p style=""color:white;"">Press ""0"" for NO</p>","48","html-keyboard-response","358","425921","0.0-6.0-2.12"
"null","<p id=""counter"" style=""text-align:center; color:white; font-size:30px"">+</p>","null","html-keyboard-response","359","426925","0.0-6.0-0.13"
"null","sounds/unintel_45/U_BKBQ0112.WAV","null","audio-keyboard-response","360","428634","0.0-6.0-1.13"
"479.03999988920987","<p style=""color:white;"">Could you hear speech in the audio?</p><p style=""color:white;"">Press ""1"" for YES</p><p style=""color:white;"">Press ""0"" for NO</p>","48","html-keyboard-response","361","429114","0.0-6.0-2.13"
"null","<p id=""counter"" style=""text-align:center; color:white; font-size:30px"">+</p>","null","html-keyboard-response","362","430116","0.0-6.0-0.14"
"null","sounds/unintel_45/U_BKBQ0106.WAV","null","audio-keyboard-response","363","432124","0.0-6.0-1.14"
"914.7600000724196","<p style=""color:white;"">Could you hear speech in the audio?</p><p style=""color:white;"">Press ""1"" for YES</p><p style=""color:white;"">Press ""0"" for NO</p>","48","html-keyboard-response","364","433040","0.0-6.0-2.14"
"null","<p id=""counter"" style=""text-align:center; color:white; font-size:30px"">+</p>","null","html-keyboard-response","365","434042","0.0-6.0-0.15"
"null","sounds/unintel_45/U_BKBQ0514.WAV","null","audio-keyboard-response","366","435954","0.0-6.0-1.15"
"317.9250000976026","<p style=""color:white;"">Could you hear speech in the audio?</p><p style=""color:white;"">Press ""1"" for YES</p><p style=""color:white;"">Press ""0"" for NO</p>","49","html-keyboard-response","367","436273","0.0-6.0-2.15"
"null","<p id=""counter"" style=""text-align:center; color:white; font-size:30px"">+</p>","null","html-keyboard-response","368","437276","0.0-6.0-0.16"
"null","sounds/unintel_45/U_BKBQ0214.WAV","null","audio-keyboard-response","369","439113","0.0-6.0-1.16"
"367.40000010468066","<p style=""color:white;"">Could you hear speech in the audio?</p><p style=""color:white;"">Press ""1"" for YES</p><p style=""color:white;"">Press ""0"" for NO</p>","48","html-keyboard-response","370","439482","0.0-6.0-2.16"
"null","<p id=""counter"" style=""text-align:center; color:white; font-size:30px"">+</p>","null","html-keyboard-response","371","440484","0.0-6.0-0.17"
"null","sounds/intel_45/I_BKBQ0308.wav","null","audio-keyboard-response","372","442513","0.0-6.0-1.17"
"309.5299999695271","<p style=""color:white;"">Could you hear speech in the audio?</p><p style=""color:white;"">Press ""1"" for YES</p><p style=""color:white;"">Press ""0"" for NO</p>","49","html-keyboard-response","373","442825","0.0-6.0-2.17"
"null","<p id=""counter"" style=""text-align:center; color:white; font-size:30px"">+</p>","null","html-keyboard-response","374","443826","0.0-6.0-0.18"
"null","sounds/intel_45/I_BKBQ0102.wav","null","audio-keyboard-response","375","445794","0.0-6.0-1.18"
"693.714999826625","<p style=""color:white;"">Could you hear speech in the audio?</p><p style=""color:white;"">Press ""1"" for YES</p><p style=""color:white;"">Press ""0"" for NO</p>","48","html-keyboard-response","376","446489","0.0-6.0-2.18"
"null","<p id=""counter"" style=""text-align:center; color:white; font-size:30px"">+</p>","null","html-keyboard-response","377","447492","0.0-6.0-0.19"
"null","sounds/intel_45/I_BKBQ0409.wav","null","audio-keyboard-response","378","449312","0.0-6.0-1.19"
"649.8000000137836","<p style=""color:white;"">Could you hear speech in the audio?</p><p style=""color:white;"">Press ""1"" for YES</p><p style=""color:white;"">Press ""0"" for NO</p>","49","html-keyboard-response","379","449963","0.0-6.0-2.19"
"null","<p id=""counter"" style=""text-align:center; color:white; font-size:30px"">+</p>","null","html-keyboard-response","380","450965","0.0-6.0-0.20"
"null","sounds/intel_45/I_BKBQ0201.wav","null","audio-keyboard-response","381","452854","0.0-6.0-1.20"
"1001.8599999602884","<p style=""color:white;"">Could you hear speech in the audio?</p><p style=""color:white;"">Press ""1"" for YES</p><p style=""color:white;"">Press ""0"" for NO</p>","48","html-keyboard-response","382","453857","0.0-6.0-2.20"
"null","<p id=""counter"" style=""text-align:center; color:white; font-size:30px"">+</p>","null","html-keyboard-response","383","454860","0.0-6.0-0.21"
"null","sounds/unintel_45/U_BKBQ0215.WAV","null","audio-keyboard-response","384","456603","0.0-6.0-1.21"
"284.34500005096197","<p style=""color:white;"">Could you hear speech in the audio?</p><p style=""color:white;"">Press ""1"" for YES</p><p style=""color:white;"">Press ""0"" for NO</p>","48","html-keyboard-response","385","456888","0.0-6.0-2.21"
"null","<p id=""counter"" style=""text-align:center; color:white; font-size:30px"">+</p>","null","html-keyboard-response","386","457890","0.0-6.0-0.22"
"null","sounds/unintel_45/U_BKBQ0316.WAV","null","audio-keyboard-response","387","459573","0.0-6.0-1.22"
"1018.7699999660254","<p style=""color:white;"">Could you hear speech in the audio?</p><p style=""color:white;"">Press ""1"" for YES</p><p style=""color:white;"">Press ""0"" for NO</p>","48","html-keyboard-response","388","460592","0.0-6.0-2.22"
"null","<p id=""counter"" style=""text-align:center; color:white; font-size:30px"">+</p>","null","html-keyboard-response","389","461594","0.0-6.0-0.23"
"null","sounds/unintel_45/U_BKBQ0501.WAV","null","audio-keyboard-response","390","463214","0.0-6.0-1.23"
"321.16000005044043","<p style=""color:white;"">Could you hear speech in the audio?</p><p style=""color:white;"">Press ""1"" for YES</p><p style=""color:white;"">Press ""0"" for NO</p>","49","html-keyboard-response","391","463537","0.0-6.0-2.23"
"null","<p id=""counter"" style=""text-align:center; color:white; font-size:30px"">+</p>","null","html-keyboard-response","392","464538","0.0-6.0-0.24"
"null","sounds/intel_45/I_BKBQ0206.wav","null","audio-keyboard-response","393","466714","0.0-6.0-1.24"
"965.6050000339746","<p style=""color:white;"">Could you hear speech in the audio?</p><p style=""color:white;"">Press ""1"" for YES</p><p style=""color:white;"">Press ""0"" for NO</p>","49","html-keyboard-response","394","467681","0.0-6.0-2.24"
"null","<p id=""counter"" style=""text-align:center; color:white; font-size:30px"">+</p>","null","html-keyboard-response","395","468683","0.0-6.0-0.25"
"null","sounds/intel_45/I_BKBQ0609.wav","null","audio-keyboard-response","396","470503","0.0-6.0-1.25"
"1352.235000114888","<p style=""color:white;"">Could you hear speech in the audio?</p><p style=""color:white;"">Press ""1"" for YES</p><p style=""color:white;"">Press ""0"" for NO</p>","48","html-keyboard-response","397","471857","0.0-6.0-2.25"
"null","<p id=""counter"" style=""text-align:center; color:white; font-size:30px"">+</p>","null","html-keyboard-response","398","472858","0.0-6.0-0.26"
"null","sounds/unintel_45/U_BKBQ0115.WAV","null","audio-keyboard-response","399","474563","0.0-6.0-1.26"
"490.6450000125915","<p style=""color:white;"">Could you hear speech in the audio?</p><p style=""color:white;"">Press ""1"" for YES</p><p style=""color:white;"">Press ""0"" for NO</p>","48","html-keyboard-response","400","475055","0.0-6.0-2.26"
"null","<p id=""counter"" style=""text-align:center; color:white; font-size:30px"">+</p>","null","html-keyboard-response","401","476057","0.0-6.0-0.27"
"null","sounds/unintel_45/U_BKBQ0607.WAV","null","audio-keyboard-response","402","477854","0.0-6.0-1.27"
"520.1499999966472","<p style=""color:white;"">Could you hear speech in the audio?</p><p style=""color:white;"">Press ""1"" for YES</p><p style=""color:white;"">Press ""0"" for NO</p>","48","html-keyboard-response","403","478377","0.0-6.0-2.27"
"null","<p id=""counter"" style=""text-align:center; color:white; font-size:30px"">+</p>","null","html-keyboard-response","404","479378","0.0-6.0-0.28"
"null","sounds/intel_45/I_BKBQ0406.wav","null","audio-keyboard-response","405","481413","0.0-6.0-1.28"
"1153.4400000236928","<p style=""color:white;"">Could you hear speech in the audio?</p><p style=""color:white;"">Press ""1"" for YES</p><p style=""color:white;"">Press ""0"" for NO</p>","49","html-keyboard-response","406","482568","0.0-6.0-2.28"
"null","<p id=""counter"" style=""text-align:center; color:white; font-size:30px"">+</p>","null","html-keyboard-response","407","483569","0.0-6.0-0.29"
"null","sounds/unintel_45/U_BKBQ0205.WAV","null","audio-keyboard-response","408","485144","0.0-6.0-1.29"
"2406.510000117123","<p style=""color:white;"">Could you hear speech in the audio?</p><p style=""color:white;"">Press ""1"" for YES</p><p style=""color:white;"">Press ""0"" for NO</p>","48","html-keyboard-response","409","487551","0.0-6.0-2.29"
"null","<p id=""counter"" style=""text-align:center; color:white; font-size:30px"">+</p>","null","html-keyboard-response","410","488552","0.0-6.0-0.30"
"null","sounds/intel_45/I_BKBQ0110.wav","null","audio-keyboard-response","411","490174","0.0-6.0-1.30"
"201.6849999781698","<p style=""color:white;"">Could you hear speech in the audio?</p><p style=""color:white;"">Press ""1"" for YES</p><p style=""color:white;"">Press ""0"" for NO</p>","49","html-keyboard-response","412","490377","0.0-6.0-2.30"
"null","<p id=""counter"" style=""text-align:center; color:white; font-size:30px"">+</p>","null","html-keyboard-response","413","491379","0.0-6.0-0.31"
"null","sounds/unintel_45/U_BKBQ0206.WAV","null","audio-keyboard-response","414","493054","0.0-6.0-1.31"
"401.79999987594783","<p style=""color:white;"">Could you hear speech in the audio?</p><p style=""color:white;"">Press ""1"" for YES</p><p style=""color:white;"">Press ""0"" for NO</p>","49","html-keyboard-response","415","493456","0.0-6.0-2.31"
"null","<p id=""counter"" style=""text-align:center; color:white; font-size:30px"">+</p>","null","html-keyboard-response","416","494459","0.0-6.0-0.32"
"null","sounds/intel_45/I_BKBQ0505.wav","null","audio-keyboard-response","417","496494","0.0-6.0-1.32"
"353.4899998921901","<p style=""color:white;"">Could you hear speech in the audio?</p><p style=""color:white;"">Press ""1"" for YES</p><p style=""color:white;"">Press ""0"" for NO</p>","48","html-keyboard-response","418","496849","0.0-6.0-2.32"
"null","<p id=""counter"" style=""text-align:center; color:white; font-size:30px"">+</p>","null","html-keyboard-response","419","497851","0.0-6.0-0.33"
"null","sounds/unintel_45/U_BKBQ0304.WAV","null","audio-keyboard-response","420","499552","0.0-6.0-1.33"
"287.914999993518","<p style=""color:white;"">Could you hear speech in the audio?</p><p style=""color:white;"">Press ""1"" for YES</p><p style=""color:white;"">Press ""0"" for NO</p>","48","html-keyboard-response","421","499841","0.0-6.0-2.33"
"null","<p id=""counter"" style=""text-align:center; color:white; font-size:30px"">+</p>","null","html-keyboard-response","422","500843","0.0-6.0-0.34"
"null","sounds/unintel_45/U_BKBQ0416.WAV","null","audio-keyboard-response","423","502734","0.0-6.0-1.34"
"489.4900000654161","<p style=""color:white;"">Could you hear speech in the audio?</p><p style=""color:white;"">Press ""1"" for YES</p><p style=""color:white;"">Press ""0"" for NO</p>","48","html-keyboard-response","424","503225","0.0-6.0-2.34"
"null","<p id=""counter"" style=""text-align:center; color:white; font-size:30px"">+</p>","null","html-keyboard-response","425","504227","0.0-6.0-0.35"
"null","sounds/unintel_45/U_BKBQ0202.WAV","null","audio-keyboard-response","426","506144","0.0-6.0-1.35"
"304.73500001244247","<p style=""color:white;"">Could you hear speech in the audio?</p><p style=""color:white;"">Press ""1"" for YES</p><p style=""color:white;"">Press ""0"" for NO</p>","48","html-keyboard-response","427","506450","0.0-6.0-2.35"
"null","<p id=""counter"" style=""text-align:center; color:white; font-size:30px"">+</p>","null","html-keyboard-response","428","507451","0.0-6.0-0.36"
"null","sounds/intel_45/I_BKBQ0109.wav","null","audio-keyboard-response","429","509494","0.0-6.0-1.36"
"376.55499996617436","<p style=""color:white;"">Could you hear speech in the audio?</p><p style=""color:white;"">Press ""1"" for YES</p><p style=""color:white;"">Press ""0"" for NO</p>","49","html-keyboard-response","430","509871","0.0-6.0-2.36"
"null","<p id=""counter"" style=""text-align:center; color:white; font-size:30px"">+</p>","null","html-keyboard-response","431","510873","0.0-6.0-0.37"
"null","sounds/intel_45/I_BKBQ0103.wav","null","audio-keyboard-response","432","512914","0.0-6.0-1.37"
"261.6149999666959","<p style=""color:white;"">Could you hear speech in the audio?</p><p style=""color:white;"">Press ""1"" for YES</p><p style=""color:white;"">Press ""0"" for NO</p>","48","html-keyboard-response","433","513177","0.0-6.0-2.37"
"null","<p id=""counter"" style=""text-align:center; color:white; font-size:30px"">+</p>","null","html-keyboard-response","434","514180","0.0-6.0-0.38"
"null","sounds/unintel_45/U_BKBQ0412.WAV","null","audio-keyboard-response","435","515893","0.0-6.0-1.38"
"394.2650000099093","<p style=""color:white;"">Could you hear speech in the audio?</p><p style=""color:white;"">Press ""1"" for YES</p><p style=""color:white;"">Press ""0"" for NO</p>","48","html-keyboard-response","436","516289","0.0-6.0-2.38"
"null","<p id=""counter"" style=""text-align:center; color:white; font-size:30px"">+</p>","null","html-keyboard-response","437","517291","0.0-6.0-0.39"
"null","sounds/intel_45/I_BKBQ0316.wav","null","audio-keyboard-response","438","519463","0.0-6.0-1.39"
"687.8750000614673","<p style=""color:white;"">Could you hear speech in the audio?</p><p style=""color:white;"">Press ""1"" for YES</p><p style=""color:white;"">Press ""0"" for NO</p>","49","html-keyboard-response","439","520153","0.0-6.0-2.39"
"null","<p id=""counter"" style=""text-align:center; color:white; font-size:30px"">+</p>","null","html-keyboard-response","440","521156","0.0-6.0-0.40"
"null","sounds/intel_45/I_BKBQ0514.wav","null","audio-keyboard-response","441","523474","0.0-6.0-1.40"
"348.994999891147","<p style=""color:white;"">Could you hear speech in the audio?</p><p style=""color:white;"">Press ""1"" for YES</p><p style=""color:white;"">Press ""0"" for NO</p>","48","html-keyboard-response","442","523824","0.0-6.0-2.40"
"null","<p id=""counter"" style=""text-align:center; color:white; font-size:30px"">+</p>","null","html-keyboard-response","443","524825","0.0-6.0-0.41"
"null","sounds/intel_45/I_BKBQ0411.wav","null","audio-keyboard-response","444","526714","0.0-6.0-1.41"
"223.48499996587634","<p style=""color:white;"">Could you hear speech in the audio?</p><p style=""color:white;"">Press ""1"" for YES</p><p style=""color:white;"">Press ""0"" for NO</p>","49","html-keyboard-response","445","526938","0.0-6.0-2.41"
"null","<p id=""counter"" style=""text-align:center; color:white; font-size:30px"">+</p>","null","html-keyboard-response","446","527940","0.0-6.0-0.42"
"null","sounds/intel_45/I_BKBQ0209.wav","null","audio-keyboard-response","447","529904","0.0-6.0-1.42"
"584.610000019893","<p style=""color:white;"">Could you hear speech in the audio?</p><p style=""color:white;"">Press ""1"" for YES</p><p style=""color:white;"">Press ""0"" for NO</p>","48","html-keyboard-response","448","530490","0.0-6.0-2.42"
"null","<p id=""counter"" style=""text-align:center; color:white; font-size:30px"">+</p>","null","html-keyboard-response","449","531491","0.0-6.0-0.43"
"null","sounds/intel_45/I_BKBQ0603.wav","null","audio-keyboard-response","450","533533","0.0-6.0-1.43"
"1146.7399999964982","<p style=""color:white;"">Could you hear speech in the audio?</p><p style=""color:white;"">Press ""1"" for YES</p><p style=""color:white;"">Press ""0"" for NO</p>","48","html-keyboard-response","451","534681","0.0-6.0-2.43"
"null","<p id=""counter"" style=""text-align:center; color:white; font-size:30px"">+</p>","null","html-keyboard-response","452","535683","0.0-6.0-0.44"
"null","sounds/unintel_45/U_BKBQ0613.WAV","null","audio-keyboard-response","453","537274","0.0-6.0-1.44"
"725.8900001179427","<p style=""color:white;"">Could you hear speech in the audio?</p><p style=""color:white;"">Press ""1"" for YES</p><p style=""color:white;"">Press ""0"" for NO</p>","49","html-keyboard-response","454","538001","0.0-6.0-2.44"
"null","<p id=""counter"" style=""text-align:center; color:white; font-size:30px"">This is the end of the experiment.</p>","null","html-keyboard-response","455","538503","0.0-7.0-0.0"
