"rt","stimulus","key_press","trial_type","trial_index","time_elapsed","internal_node_id"
"1870.6750001292676","<p style=""color:white;"">Welcome to the experiment!</p><p style=""color:white;"">Press any key to continue.</p>","32","html-keyboard-response","0","1876","0.0-0.0"
"114446.9800000079","<p style=""color:white;"">In this task you will listen to a series of audio clips.</p><p style=""color:white;"">The task is split into two test blocks, with a listening block in-between.</p><p style=""color:white;"">In the test blocks you will listen to a series of audio clips, and will have to indicate whether you heard speech in each clip.</p><p style=""color:white;"">In the listening block you just have to listen to several audio recordings. No response is required.</p><p style=""color:white;"">Press any key to continue to the study.</p>","32","html-keyboard-response","1","116324","0.0-1.0-0.0"
"3845.424999948591","<p style=""color:white;"">We will now begin the first test block .</p> <p style=""color:white;"">Press any key to begin.</p>","32","html-keyboard-response","2","120171","0.0-1.0-1.0"
"null","<p id=""counter"" style=""text-align:center; color:white; font-size:30px"">+</p>","null","html-keyboard-response","3","121175","0.0-2.0-0.0"
"null","sounds/unintel_45/U_BKBQ0114.WAV","null","audio-keyboard-response","4","122817","0.0-2.0-1.0"
"8807.555000064895","<p style=""color:white;"">Could you hear speech in the audio?</p><p style=""color:white;"">Press ""1"" for YES</p><p style=""color:white;"">Press ""0"" for NO</p>","49","html-keyboard-response","5","131627","0.0-2.0-2.0"
"null","<p id=""counter"" style=""text-align:center; color:white; font-size:30px"">+</p>","null","html-keyboard-response","6","132630","0.0-2.0-0.1"
"null","sounds/intel_45/I_BKBQ0110.wav","null","audio-keyboard-response","7","134237","0.0-2.0-1.1"
"2108.879999956116","<p style=""color:white;"">Could you hear speech in the audio?</p><p style=""color:white;"">Press ""1"" for YES</p><p style=""color:white;"">Press ""0"" for NO</p>","49","html-keyboard-response","8","136347","0.0-2.0-2.1"
"null","<p id=""counter"" style=""text-align:center; color:white; font-size:30px"">+</p>","null","html-keyboard-response","9","137349","0.0-2.0-0.2"
"null","sounds/intel_45/I_BKBQ0413.wav","null","audio-keyboard-response","10","139727","0.0-2.0-1.2"
"2114.595000166446","<p style=""color:white;"">Could you hear speech in the audio?</p><p style=""color:white;"">Press ""1"" for YES</p><p style=""color:white;"">Press ""0"" for NO</p>","49","html-keyboard-response","11","141842","0.0-2.0-2.2"
"null","<p id=""counter"" style=""text-align:center; color:white; font-size:30px"">+</p>","null","html-keyboard-response","12","142844","0.0-2.0-0.3"
"null","sounds/intel_45/I_BKBQ0513.wav","null","audio-keyboard-response","13","144526","0.0-2.0-1.3"
"858.5449999663979","<p style=""color:white;"">Could you hear speech in the audio?</p><p style=""color:white;"">Press ""1"" for YES</p><p style=""color:white;"">Press ""0"" for NO</p>","49","html-keyboard-response","14","145385","0.0-2.0-2.3"
"null","<p id=""counter"" style=""text-align:center; color:white; font-size:30px"">+</p>","null","html-keyboard-response","15","146387","0.0-2.0-0.4"
"null","sounds/intel_45/I_BKBQ0412.wav","null","audio-keyboard-response","16","148277","0.0-2.0-1.4"
"963.2449999917299","<p style=""color:white;"">Could you hear speech in the audio?</p><p style=""color:white;"">Press ""1"" for YES</p><p style=""color:white;"">Press ""0"" for NO</p>","49","html-keyboard-response","17","149242","0.0-2.0-2.4"
"null","<p id=""counter"" style=""text-align:center; color:white; font-size:30px"">+</p>","null","html-keyboard-response","18","150244","0.0-2.0-0.5"
"null","sounds/intel_45/I_BKBQ0309.wav","null","audio-keyboard-response","19","152347","0.0-2.0-1.5"
"2653.099999995902","<p style=""color:white;"">Could you hear speech in the audio?</p><p style=""color:white;"">Press ""1"" for YES</p><p style=""color:white;"">Press ""0"" for NO</p>","49","html-keyboard-response","20","155001","0.0-2.0-2.5"
"null","<p id=""counter"" style=""text-align:center; color:white; font-size:30px"">+</p>","null","html-keyboard-response","21","156002","0.0-2.0-0.6"
"null","sounds/intel_45/I_BKBQ0114.wav","null","audio-keyboard-response","22","158035","0.0-2.0-1.6"
"446.2699999567121","<p style=""color:white;"">Could you hear speech in the audio?</p><p style=""color:white;"">Press ""1"" for YES</p><p style=""color:white;"">Press ""0"" for NO</p>","48","html-keyboard-response","23","158482","0.0-2.0-2.6"
"null","<p id=""counter"" style=""text-align:center; color:white; font-size:30px"">+</p>","null","html-keyboard-response","24","159485","0.0-2.0-0.7"
"null","sounds/intel_45/I_BKBQ0304.wav","null","audio-keyboard-response","25","161526","0.0-2.0-1.7"
"316.4450000040233","<p style=""color:white;"">Could you hear speech in the audio?</p><p style=""color:white;"">Press ""1"" for YES</p><p style=""color:white;"">Press ""0"" for NO</p>","49","html-keyboard-response","26","161843","0.0-2.0-2.7"
"null","<p id=""counter"" style=""text-align:center; color:white; font-size:30px"">+</p>","null","html-keyboard-response","27","162846","0.0-2.0-0.8"
"null","sounds/unintel_45/U_BKBQ0109.WAV","null","audio-keyboard-response","28","164646","0.0-2.0-1.8"
"892.035000026226","<p style=""color:white;"">Could you hear speech in the audio?</p><p style=""color:white;"">Press ""1"" for YES</p><p style=""color:white;"">Press ""0"" for NO</p>","48","html-keyboard-response","29","165539","0.0-2.0-2.8"
"null","<p id=""counter"" style=""text-align:center; color:white; font-size:30px"">+</p>","null","html-keyboard-response","30","166540","0.0-2.0-0.9"
"null","sounds/unintel_45/U_BKBQ0214.WAV","null","audio-keyboard-response","31","168377","0.0-2.0-1.9"
"351.32499993778765","<p style=""color:white;"">Could you hear speech in the audio?</p><p style=""color:white;"">Press ""1"" for YES</p><p style=""color:white;"">Press ""0"" for NO</p>","48","html-keyboard-response","32","168730","0.0-2.0-2.9"
"null","<p id=""counter"" style=""text-align:center; color:white; font-size:30px"">+</p>","null","html-keyboard-response","33","169732","0.0-2.0-0.10"
"null","sounds/intel_45/I_BKBQ0311.wav","null","audio-keyboard-response","34","171766","0.0-2.0-1.10"
"451.4949999283999","<p style=""color:white;"">Could you hear speech in the audio?</p><p style=""color:white;"">Press ""1"" for YES</p><p style=""color:white;"">Press ""0"" for NO</p>","49","html-keyboard-response","35","172219","0.0-2.0-2.10"
"null","<p id=""counter"" style=""text-align:center; color:white; font-size:30px"">+</p>","null","html-keyboard-response","36","173223","0.0-2.0-0.11"
"null","sounds/unintel_45/U_BKBQ0110.WAV","null","audio-keyboard-response","37","174778","0.0-2.0-1.11"
"384.1549998614937","<p style=""color:white;"">Could you hear speech in the audio?</p><p style=""color:white;"">Press ""1"" for YES</p><p style=""color:white;"">Press ""0"" for NO</p>","48","html-keyboard-response","38","175163","0.0-2.0-2.11"
"null","<p id=""counter"" style=""text-align:center; color:white; font-size:30px"">+</p>","null","html-keyboard-response","39","176167","0.0-2.0-0.12"
"null","sounds/unintel_45/U_BKBQ0411.WAV","null","audio-keyboard-response","40","177857","0.0-2.0-1.12"
"351.19999991729856","<p style=""color:white;"">Could you hear speech in the audio?</p><p style=""color:white;"">Press ""1"" for YES</p><p style=""color:white;"">Press ""0"" for NO</p>","48","html-keyboard-response","41","178210","0.0-2.0-2.12"
"null","<p id=""counter"" style=""text-align:center; color:white; font-size:30px"">+</p>","null","html-keyboard-response","42","179212","0.0-2.0-0.13"
"null","sounds/unintel_45/U_BKBQ0501.WAV","null","audio-keyboard-response","43","180827","0.0-2.0-1.13"
"380.9549999423325","<p style=""color:white;"">Could you hear speech in the audio?</p><p style=""color:white;"">Press ""1"" for YES</p><p style=""color:white;"">Press ""0"" for NO</p>","48","html-keyboard-response","44","181209","0.0-2.0-2.13"
"null","<p id=""counter"" style=""text-align:center; color:white; font-size:30px"">+</p>","null","html-keyboard-response","45","182211","0.0-2.0-0.14"
"null","sounds/intel_45/I_BKBQ0312.wav","null","audio-keyboard-response","46","184247","0.0-2.0-1.14"
"426.8349998164922","<p style=""color:white;"">Could you hear speech in the audio?</p><p style=""color:white;"">Press ""1"" for YES</p><p style=""color:white;"">Press ""0"" for NO</p>","49","html-keyboard-response","47","184676","0.0-2.0-2.14"
"null","<p id=""counter"" style=""text-align:center; color:white; font-size:30px"">+</p>","null","html-keyboard-response","48","185679","0.0-2.0-0.15"
"null","sounds/unintel_45/U_BKBQ0612.WAV","null","audio-keyboard-response","49","187587","0.0-2.0-1.15"
"781.4499998930842","<p style=""color:white;"">Could you hear speech in the audio?</p><p style=""color:white;"">Press ""1"" for YES</p><p style=""color:white;"">Press ""0"" for NO</p>","48","html-keyboard-response","50","188369","0.0-2.0-2.15"
"null","<p id=""counter"" style=""text-align:center; color:white; font-size:30px"">+</p>","null","html-keyboard-response","51","189370","0.0-2.0-0.16"
"null","sounds/intel_45/I_BKBQ0205.wav","null","audio-keyboard-response","52","191196","0.0-2.0-1.16"
"893.0949999485165","<p style=""color:white;"">Could you hear speech in the audio?</p><p style=""color:white;"">Press ""1"" for YES</p><p style=""color:white;"">Press ""0"" for NO</p>","49","html-keyboard-response","53","192090","0.0-2.0-2.16"
"null","<p id=""counter"" style=""text-align:center; color:white; font-size:30px"">+</p>","null","html-keyboard-response","54","193092","0.0-2.0-0.17"
"null","sounds/unintel_45/U_BKBQ0315.WAV","null","audio-keyboard-response","55","194847","0.0-2.0-1.17"
"1225.289999973029","<p style=""color:white;"">Could you hear speech in the audio?</p><p style=""color:white;"">Press ""1"" for YES</p><p style=""color:white;"">Press ""0"" for NO</p>","48","html-keyboard-response","56","196074","0.0-2.0-2.17"
"null","<p id=""counter"" style=""text-align:center; color:white; font-size:30px"">+</p>","null","html-keyboard-response","57","197076","0.0-2.0-0.18"
"null","sounds/unintel_45/U_BKBQ0209.WAV","null","audio-keyboard-response","58","198827","0.0-2.0-1.18"
"390.26499981991947","<p style=""color:white;"">Could you hear speech in the audio?</p><p style=""color:white;"">Press ""1"" for YES</p><p style=""color:white;"">Press ""0"" for NO</p>","48","html-keyboard-response","59","199218","0.0-2.0-2.18"
"null","<p id=""counter"" style=""text-align:center; color:white; font-size:30px"">+</p>","null","html-keyboard-response","60","200220","0.0-2.0-0.19"
"null","sounds/unintel_45/U_BKBQ0613.WAV","null","audio-keyboard-response","61","201807","0.0-2.0-1.19"
"361.95000004954636","<p style=""color:white;"">Could you hear speech in the audio?</p><p style=""color:white;"">Press ""1"" for YES</p><p style=""color:white;"">Press ""0"" for NO</p>","48","html-keyboard-response","62","202170","0.0-2.0-2.19"
"null","<p id=""counter"" style=""text-align:center; color:white; font-size:30px"">+</p>","null","html-keyboard-response","63","203173","0.0-2.0-0.20"
"null","sounds/intel_45/I_BKBQ0501.wav","null","audio-keyboard-response","64","205207","0.0-2.0-1.20"
"560.8099999371916","<p style=""color:white;"">Could you hear speech in the audio?</p><p style=""color:white;"">Press ""1"" for YES</p><p style=""color:white;"">Press ""0"" for NO</p>","49","html-keyboard-response","65","205780","0.0-2.0-2.20"
"null","<p id=""counter"" style=""text-align:center; color:white; font-size:30px"">+</p>","null","html-keyboard-response","66","206784","0.0-2.0-0.21"
"null","sounds/unintel_45/U_BKBQ0304.WAV","null","audio-keyboard-response","67","208497","0.0-2.0-1.21"
"326.76499988883734","<p style=""color:white;"">Could you hear speech in the audio?</p><p style=""color:white;"">Press ""1"" for YES</p><p style=""color:white;"">Press ""0"" for NO</p>","49","html-keyboard-response","68","208825","0.0-2.0-2.21"
"null","<p id=""counter"" style=""text-align:center; color:white; font-size:30px"">+</p>","null","html-keyboard-response","69","209827","0.0-2.0-0.22"
"null","sounds/intel_45/I_BKBQ0209.wav","null","audio-keyboard-response","70","211797","0.0-2.0-1.22"
"301.695000147447","<p style=""color:white;"">Could you hear speech in the audio?</p><p style=""color:white;"">Press ""1"" for YES</p><p style=""color:white;"">Press ""0"" for NO</p>","48","html-keyboard-response","71","212100","0.0-2.0-2.22"
"null","<p id=""counter"" style=""text-align:center; color:white; font-size:30px"">+</p>","null","html-keyboard-response","72","213101","0.0-2.0-0.23"
"null","sounds/unintel_45/U_BKBQ0401.WAV","null","audio-keyboard-response","73","214977","0.0-2.0-1.23"
"894.9950002133846","<p style=""color:white;"">Could you hear speech in the audio?</p><p style=""color:white;"">Press ""1"" for YES</p><p style=""color:white;"">Press ""0"" for NO</p>","49","html-keyboard-response","74","215873","0.0-2.0-2.23"
"null","<p id=""counter"" style=""text-align:center; color:white; font-size:30px"">+</p>","null","html-keyboard-response","75","216875","0.0-2.0-0.24"
"null","sounds/unintel_45/U_BKBQ0505.WAV","null","audio-keyboard-response","76","218526","0.0-2.0-1.24"
"396.9300000462681","<p style=""color:white;"">Could you hear speech in the audio?</p><p style=""color:white;"">Press ""1"" for YES</p><p style=""color:white;"">Press ""0"" for NO</p>","48","html-keyboard-response","77","218923","0.0-2.0-2.24"
"null","<p id=""counter"" style=""text-align:center; color:white; font-size:30px"">+</p>","null","html-keyboard-response","78","219926","0.0-2.0-0.25"
"null","sounds/unintel_45/U_BKBQ0609.WAV","null","audio-keyboard-response","79","221647","0.0-2.0-1.25"
"376.420000102371","<p style=""color:white;"">Could you hear speech in the audio?</p><p style=""color:white;"">Press ""1"" for YES</p><p style=""color:white;"">Press ""0"" for NO</p>","48","html-keyboard-response","80","222025","0.0-2.0-2.25"
"null","<p id=""counter"" style=""text-align:center; color:white; font-size:30px"">+</p>","null","html-keyboard-response","81","223026","0.0-2.0-0.26"
"null","sounds/unintel_45/U_BKBQ0512.WAV","null","audio-keyboard-response","82","224707","0.0-2.0-1.26"
"686.2299998756498","<p style=""color:white;"">Could you hear speech in the audio?</p><p style=""color:white;"">Press ""1"" for YES</p><p style=""color:white;"">Press ""0"" for NO</p>","48","html-keyboard-response","83","225394","0.0-2.0-2.26"
"null","<p id=""counter"" style=""text-align:center; color:white; font-size:30px"">+</p>","null","html-keyboard-response","84","226397","0.0-2.0-0.27"
"null","sounds/intel_45/I_BKBQ0607.wav","null","audio-keyboard-response","85","228716","0.0-2.0-1.27"
"349.7699999716133","<p style=""color:white;"">Could you hear speech in the audio?</p><p style=""color:white;"">Press ""1"" for YES</p><p style=""color:white;"">Press ""0"" for NO</p>","49","html-keyboard-response","86","229067","0.0-2.0-2.27"
"null","<p id=""counter"" style=""text-align:center; color:white; font-size:30px"">+</p>","null","html-keyboard-response","87","230069","0.0-2.0-0.28"
"null","sounds/intel_45/I_BKBQ0206.wav","null","audio-keyboard-response","88","232247","0.0-2.0-1.28"
"405.68499988876283","<p style=""color:white;"">Could you hear speech in the audio?</p><p style=""color:white;"">Press ""1"" for YES</p><p style=""color:white;"">Press ""0"" for NO</p>","49","html-keyboard-response","89","232658","0.0-2.0-2.28"
"null","<p id=""counter"" style=""text-align:center; color:white; font-size:30px"">+</p>","null","html-keyboard-response","90","233661","0.0-2.0-0.29"
"null","sounds/unintel_45/U_BKBQ0608.WAV","null","audio-keyboard-response","91","235647","0.0-2.0-1.29"
"161.85500007122755","<p style=""color:white;"">Could you hear speech in the audio?</p><p style=""color:white;"">Press ""1"" for YES</p><p style=""color:white;"">Press ""0"" for NO</p>","48","html-keyboard-response","92","235810","0.0-2.0-2.29"
"null","<p id=""counter"" style=""text-align:center; color:white; font-size:30px"">+</p>","null","html-keyboard-response","93","236812","0.0-2.0-0.30"
"null","sounds/unintel_45/U_BKBQ0407.WAV","null","audio-keyboard-response","94","238567","0.0-2.0-1.30"
"290.5299998819828","<p style=""color:white;"">Could you hear speech in the audio?</p><p style=""color:white;"">Press ""1"" for YES</p><p style=""color:white;"">Press ""0"" for NO</p>","48","html-keyboard-response","95","238858","0.0-2.0-2.30"
"null","<p id=""counter"" style=""text-align:center; color:white; font-size:30px"">+</p>","null","html-keyboard-response","96","239860","0.0-2.0-0.31"
"null","sounds/intel_45/I_BKBQ0505.wav","null","audio-keyboard-response","97","241888","0.0-2.0-1.31"
"402.71000005304813","<p style=""color:white;"">Could you hear speech in the audio?</p><p style=""color:white;"">Press ""1"" for YES</p><p style=""color:white;"">Press ""0"" for NO</p>","49","html-keyboard-response","98","242292","0.0-2.0-2.31"
"null","<p id=""counter"" style=""text-align:center; color:white; font-size:30px"">+</p>","null","html-keyboard-response","99","243295","0.0-2.0-0.32"
"null","sounds/intel_45/I_BKBQ0603.wav","null","audio-keyboard-response","100","245328","0.0-2.0-1.32"
"441.44999980926514","<p style=""color:white;"">Could you hear speech in the audio?</p><p style=""color:white;"">Press ""1"" for YES</p><p style=""color:white;"">Press ""0"" for NO</p>","49","html-keyboard-response","101","245771","0.0-2.0-2.32"
"null","<p id=""counter"" style=""text-align:center; color:white; font-size:30px"">+</p>","null","html-keyboard-response","102","246773","0.0-2.0-0.33"
"null","sounds/intel_45/I_BKBQ0401.wav","null","audio-keyboard-response","103","249088","0.0-2.0-1.33"
"769.5900001563132","<p style=""color:white;"">Could you hear speech in the audio?</p><p style=""color:white;"">Press ""1"" for YES</p><p style=""color:white;"">Press ""0"" for NO</p>","49","html-keyboard-response","104","249859","0.0-2.0-2.33"
"null","<p id=""counter"" style=""text-align:center; color:white; font-size:30px"">+</p>","null","html-keyboard-response","105","250861","0.0-2.0-0.34"
"null","sounds/unintel_45/U_BKBQ0306.WAV","null","audio-keyboard-response","106","252738","0.0-2.0-1.34"
"352.6500000152737","<p style=""color:white;"">Could you hear speech in the audio?</p><p style=""color:white;"">Press ""1"" for YES</p><p style=""color:white;"">Press ""0"" for NO</p>","48","html-keyboard-response","107","253092","0.0-2.0-2.34"
"null","<p id=""counter"" style=""text-align:center; color:white; font-size:30px"">+</p>","null","html-keyboard-response","108","254094","0.0-2.0-0.35"
"null","sounds/intel_45/I_BKBQ0407.wav","null","audio-keyboard-response","109","255848","0.0-2.0-1.35"
"841.3799998816103","<p style=""color:white;"">Could you hear speech in the audio?</p><p style=""color:white;"">Press ""1"" for YES</p><p style=""color:white;"">Press ""0"" for NO</p>","49","html-keyboard-response","110","256690","0.0-2.0-2.35"
"null","<p id=""counter"" style=""text-align:center; color:white; font-size:30px"">+</p>","null","html-keyboard-response","111","257693","0.0-2.0-0.36"
"null","sounds/intel_45/I_BKBQ0201.wav","null","audio-keyboard-response","112","259587","0.0-2.0-1.36"
"374.61000005714595","<p style=""color:white;"">Could you hear speech in the audio?</p><p style=""color:white;"">Press ""1"" for YES</p><p style=""color:white;"">Press ""0"" for NO</p>","49","html-keyboard-response","113","259963","0.0-2.0-2.36"
"null","<p id=""counter"" style=""text-align:center; color:white; font-size:30px"">+</p>","null","html-keyboard-response","114","260965","0.0-2.0-0.37"
"null","sounds/unintel_45/U_BKBQ0511.WAV","null","audio-keyboard-response","115","262748","0.0-2.0-1.37"
"967.3949999269098","<p style=""color:white;"">Could you hear speech in the audio?</p><p style=""color:white;"">Press ""1"" for YES</p><p style=""color:white;"">Press ""0"" for NO</p>","48","html-keyboard-response","116","263717","0.0-2.0-2.37"
"null","<p id=""counter"" style=""text-align:center; color:white; font-size:30px"">+</p>","null","html-keyboard-response","117","264718","0.0-2.0-0.38"
"null","sounds/intel_45/I_BKBQ0115.wav","null","audio-keyboard-response","118","266688","0.0-2.0-1.38"
"1409.504999872297","<p style=""color:white;"">Could you hear speech in the audio?</p><p style=""color:white;"">Press ""1"" for YES</p><p style=""color:white;"">Press ""0"" for NO</p>","49","html-keyboard-response","119","268099","0.0-2.0-2.38"
"null","<p id=""counter"" style=""text-align:center; color:white; font-size:30px"">+</p>","null","html-keyboard-response","120","269101","0.0-2.0-0.39"
"null","sounds/unintel_45/U_BKBQ0206.WAV","null","audio-keyboard-response","121","270778","0.0-2.0-1.39"
"310.96000014804304","<p style=""color:white;"">Could you hear speech in the audio?</p><p style=""color:white;"">Press ""1"" for YES</p><p style=""color:white;"">Press ""0"" for NO</p>","48","html-keyboard-response","122","271090","0.0-2.0-2.39"
"null","<p id=""counter"" style=""text-align:center; color:white; font-size:30px"">+</p>","null","html-keyboard-response","123","272092","0.0-2.0-0.40"
"null","sounds/intel_45/I_BKBQ0406.wav","null","audio-keyboard-response","124","274128","0.0-2.0-1.40"
"401.47499996237457","<p style=""color:white;"">Could you hear speech in the audio?</p><p style=""color:white;"">Press ""1"" for YES</p><p style=""color:white;"">Press ""0"" for NO</p>","49","html-keyboard-response","125","274530","0.0-2.0-2.40"
"null","<p id=""counter"" style=""text-align:center; color:white; font-size:30px"">+</p>","null","html-keyboard-response","126","275531","0.0-2.0-0.41"
"null","sounds/intel_45/I_BKBQ0203.wav","null","audio-keyboard-response","127","277778","0.0-2.0-1.41"
"367.3500001896173","<p style=""color:white;"">Could you hear speech in the audio?</p><p style=""color:white;"">Press ""1"" for YES</p><p style=""color:white;"">Press ""0"" for NO</p>","49","html-keyboard-response","128","278146","0.0-2.0-2.41"
"null","<p id=""counter"" style=""text-align:center; color:white; font-size:30px"">+</p>","null","html-keyboard-response","129","279148","0.0-2.0-0.42"
"null","sounds/intel_45/I_BKBQ0608.wav","null","audio-keyboard-response","130","281118","0.0-2.0-1.42"
"786.8449999950826","<p style=""color:white;"">Could you hear speech in the audio?</p><p style=""color:white;"">Press ""1"" for YES</p><p style=""color:white;"">Press ""0"" for NO</p>","49","html-keyboard-response","131","281906","0.0-2.0-2.42"
"null","<p id=""counter"" style=""text-align:center; color:white; font-size:30px"">+</p>","null","html-keyboard-response","132","282907","0.0-2.0-0.43"
"null","sounds/unintel_45/U_BKBQ0312.WAV","null","audio-keyboard-response","133","284577","0.0-2.0-1.43"
"353.7399999331683","<p style=""color:white;"">Could you hear speech in the audio?</p><p style=""color:white;"">Press ""1"" for YES</p><p style=""color:white;"">Press ""0"" for NO</p>","48","html-keyboard-response","134","284932","0.0-2.0-2.43"
"null","<p id=""counter"" style=""text-align:center; color:white; font-size:30px"">+</p>","null","html-keyboard-response","135","285933","0.0-2.0-0.44"
"null","sounds/intel_45/I_BKBQ0612.wav","null","audio-keyboard-response","136","288388","0.0-2.0-1.44"
"388.84499995037913","<p style=""color:white;"">Could you hear speech in the audio?</p><p style=""color:white;"">Press ""1"" for YES</p><p style=""color:white;"">Press ""0"" for NO</p>","49","html-keyboard-response","137","288778","0.0-2.0-2.44"
"null","<p style=""color:white;"">You will now hear some short sentences.</p><p style=""color:white;"">You do not need to respond, just listen.</p>","null","html-keyboard-response","138","298782","0.0-3.0"
"null","sounds/unaltered_45/BKBQ2014.WAV","null","audio-keyboard-response","139","300258","0.0-4.0-0.0"
"null","<p id=""counter"" style=""text-align:center; color:white; font-size:30px"">+</p>","null","html-keyboard-response","140","300760","0.0-4.0-1.0"
"null","sounds/unaltered_45/BKBQ0612.WAV","null","audio-keyboard-response","141","302596","0.0-4.0-0.1"
"null","<p id=""counter"" style=""text-align:center; color:white; font-size:30px"">+</p>","null","html-keyboard-response","142","303098","0.0-4.0-1.1"
"null","sounds/unaltered_45/BKBQ0407.WAV","null","audio-keyboard-response","143","304428","0.0-4.0-0.2"
"null","<p id=""counter"" style=""text-align:center; color:white; font-size:30px"">+</p>","null","html-keyboard-response","144","304930","0.0-4.0-1.2"
"null","sounds/unaltered_45/BKBQ1910.WAV","null","audio-keyboard-response","145","306428","0.0-4.0-0.3"
"null","<p id=""counter"" style=""text-align:center; color:white; font-size:30px"">+</p>","null","html-keyboard-response","146","306930","0.0-4.0-1.3"
"null","sounds/unaltered_45/BKBQ2102.WAV","null","audio-keyboard-response","147","308588","0.0-4.0-0.4"
"null","<p id=""counter"" style=""text-align:center; color:white; font-size:30px"">+</p>","null","html-keyboard-response","148","309089","0.0-4.0-1.4"
"null","sounds/unaltered_45/BKBQ0202.WAV","null","audio-keyboard-response","149","310438","0.0-4.0-0.5"
"null","<p id=""counter"" style=""text-align:center; color:white; font-size:30px"">+</p>","null","html-keyboard-response","150","310939","0.0-4.0-1.5"
"null","sounds/unaltered_45/BKBQ0307.WAV","null","audio-keyboard-response","151","312718","0.0-4.0-0.6"
"null","<p id=""counter"" style=""text-align:center; color:white; font-size:30px"">+</p>","null","html-keyboard-response","152","313221","0.0-4.0-1.6"
"null","sounds/unaltered_45/BKBQ2109.WAV","null","audio-keyboard-response","153","314957","0.0-4.0-0.7"
"null","<p id=""counter"" style=""text-align:center; color:white; font-size:30px"">+</p>","null","html-keyboard-response","154","315459","0.0-4.0-1.7"
"null","sounds/unaltered_45/BKBQ2106.WAV","null","audio-keyboard-response","155","316827","0.0-4.0-0.8"
"null","<p id=""counter"" style=""text-align:center; color:white; font-size:30px"">+</p>","null","html-keyboard-response","156","317329","0.0-4.0-1.8"
"null","sounds/unaltered_45/BKBQ0203.WAV","null","audio-keyboard-response","157","318997","0.0-4.0-0.9"
"null","<p id=""counter"" style=""text-align:center; color:white; font-size:30px"">+</p>","null","html-keyboard-response","158","319499","0.0-4.0-1.9"
"null","sounds/unaltered_45/BKBQ2011.WAV","null","audio-keyboard-response","159","320887","0.0-4.0-0.10"
"null","<p id=""counter"" style=""text-align:center; color:white; font-size:30px"">+</p>","null","html-keyboard-response","160","321390","0.0-4.0-1.10"
"null","sounds/unaltered_45/BKBQ1914.WAV","null","audio-keyboard-response","161","322838","0.0-4.0-0.11"
"null","<p id=""counter"" style=""text-align:center; color:white; font-size:30px"">+</p>","null","html-keyboard-response","162","323340","0.0-4.0-1.11"
"null","sounds/unaltered_45/BKBQ1714.WAV","null","audio-keyboard-response","163","324688","0.0-4.0-0.12"
"null","<p id=""counter"" style=""text-align:center; color:white; font-size:30px"">+</p>","null","html-keyboard-response","164","325190","0.0-4.0-1.12"
"null","sounds/unaltered_45/BKBQ0106.WAV","null","audio-keyboard-response","165","326617","0.0-4.0-0.13"
"null","<p id=""counter"" style=""text-align:center; color:white; font-size:30px"">+</p>","null","html-keyboard-response","166","327119","0.0-4.0-1.13"
"null","sounds/unaltered_45/BKBQ2008.WAV","null","audio-keyboard-response","167","328687","0.0-4.0-0.14"
"null","<p id=""counter"" style=""text-align:center; color:white; font-size:30px"">+</p>","null","html-keyboard-response","168","329190","0.0-4.0-1.14"
"null","sounds/unaltered_45/BKBQ1912.WAV","null","audio-keyboard-response","169","331167","0.0-4.0-0.15"
"null","<p id=""counter"" style=""text-align:center; color:white; font-size:30px"">+</p>","null","html-keyboard-response","170","331669","0.0-4.0-1.15"
"null","sounds/unaltered_45/BKBQ0309.WAV","null","audio-keyboard-response","171","333228","0.0-4.0-0.16"
"null","<p id=""counter"" style=""text-align:center; color:white; font-size:30px"">+</p>","null","html-keyboard-response","172","333730","0.0-4.0-1.16"
"null","sounds/unaltered_45/BKBQ0205.WAV","null","audio-keyboard-response","173","335116","0.0-4.0-0.17"
"null","<p id=""counter"" style=""text-align:center; color:white; font-size:30px"">+</p>","null","html-keyboard-response","174","335617","0.0-4.0-1.17"
"null","sounds/unaltered_45/BKBQ0409.WAV","null","audio-keyboard-response","175","336958","0.0-4.0-0.18"
"null","<p id=""counter"" style=""text-align:center; color:white; font-size:30px"">+</p>","null","html-keyboard-response","176","337460","0.0-4.0-1.18"
"null","sounds/unaltered_45/BKBQ1916.WAV","null","audio-keyboard-response","177","339197","0.0-4.0-0.19"
"null","<p id=""counter"" style=""text-align:center; color:white; font-size:30px"">+</p>","null","html-keyboard-response","178","339700","0.0-4.0-1.19"
"null","sounds/unaltered_45/BKBQ0607.WAV","null","audio-keyboard-response","179","341447","0.0-4.0-0.20"
"null","<p id=""counter"" style=""text-align:center; color:white; font-size:30px"">+</p>","null","html-keyboard-response","180","341949","0.0-4.0-1.20"
"null","sounds/unaltered_45/BKBQ0514.WAV","null","audio-keyboard-response","181","343658","0.0-4.0-0.21"
"null","<p id=""counter"" style=""text-align:center; color:white; font-size:30px"">+</p>","null","html-keyboard-response","182","344160","0.0-4.0-1.21"
"null","sounds/unaltered_45/BKBQ0215.WAV","null","audio-keyboard-response","183","345368","0.0-4.0-0.22"
"null","<p id=""counter"" style=""text-align:center; color:white; font-size:30px"">+</p>","null","html-keyboard-response","184","345870","0.0-4.0-1.22"
"null","sounds/unaltered_45/BKBQ0412.WAV","null","audio-keyboard-response","185","347287","0.0-4.0-0.23"
"null","<p id=""counter"" style=""text-align:center; color:white; font-size:30px"">+</p>","null","html-keyboard-response","186","347789","0.0-4.0-1.23"
"null","sounds/unaltered_45/BKBQ1803.WAV","null","audio-keyboard-response","187","349217","0.0-4.0-0.24"
"null","<p id=""counter"" style=""text-align:center; color:white; font-size:30px"">+</p>","null","html-keyboard-response","188","349719","0.0-4.0-1.24"
"null","sounds/unaltered_45/BKBQ2001.WAV","null","audio-keyboard-response","189","351147","0.0-4.0-0.25"
"null","<p id=""counter"" style=""text-align:center; color:white; font-size:30px"">+</p>","null","html-keyboard-response","190","351649","0.0-4.0-1.25"
"null","sounds/unaltered_45/BKBQ0214.WAV","null","audio-keyboard-response","191","353077","0.0-4.0-0.26"
"null","<p id=""counter"" style=""text-align:center; color:white; font-size:30px"">+</p>","null","html-keyboard-response","192","353578","0.0-4.0-1.26"
"null","sounds/unaltered_45/BKBQ2108.WAV","null","audio-keyboard-response","193","355156","0.0-4.0-0.27"
"null","<p id=""counter"" style=""text-align:center; color:white; font-size:30px"">+</p>","null","html-keyboard-response","194","355657","0.0-4.0-1.27"
"null","sounds/unaltered_45/BKBQ0308.WAV","null","audio-keyboard-response","195","357186","0.0-4.0-0.28"
"null","<p id=""counter"" style=""text-align:center; color:white; font-size:30px"">+</p>","null","html-keyboard-response","196","357689","0.0-4.0-1.28"
"null","sounds/unaltered_45/BKBQ1815.WAV","null","audio-keyboard-response","197","359227","0.0-4.0-0.29"
"null","<p id=""counter"" style=""text-align:center; color:white; font-size:30px"">+</p>","null","html-keyboard-response","198","359730","0.0-4.0-1.29"
"null","sounds/unaltered_45/BKBQ2116.WAV","null","audio-keyboard-response","199","360908","0.0-4.0-0.30"
"null","<p id=""counter"" style=""text-align:center; color:white; font-size:30px"">+</p>","null","html-keyboard-response","200","361411","0.0-4.0-1.30"
"null","sounds/unaltered_45/BKBQ0102.WAV","null","audio-keyboard-response","201","362888","0.0-4.0-0.31"
"null","<p id=""counter"" style=""text-align:center; color:white; font-size:30px"">+</p>","null","html-keyboard-response","202","363390","0.0-4.0-1.31"
"null","sounds/unaltered_45/BKBQ0110.WAV","null","audio-keyboard-response","203","364566","0.0-4.0-0.32"
"null","<p id=""counter"" style=""text-align:center; color:white; font-size:30px"">+</p>","null","html-keyboard-response","204","365069","0.0-4.0-1.32"
"null","sounds/unaltered_45/BKBQ2016.WAV","null","audio-keyboard-response","205","366748","0.0-4.0-0.33"
"null","<p id=""counter"" style=""text-align:center; color:white; font-size:30px"">+</p>","null","html-keyboard-response","206","367250","0.0-4.0-1.33"
"null","sounds/unaltered_45/BKBQ1816.WAV","null","audio-keyboard-response","207","368857","0.0-4.0-0.34"
"null","<p id=""counter"" style=""text-align:center; color:white; font-size:30px"">+</p>","null","html-keyboard-response","208","369358","0.0-4.0-1.34"
"null","sounds/unaltered_45/BKBQ2004.WAV","null","audio-keyboard-response","209","370598","0.0-4.0-0.35"
"null","<p id=""counter"" style=""text-align:center; color:white; font-size:30px"">+</p>","null","html-keyboard-response","210","371100","0.0-4.0-1.35"
"null","sounds/unaltered_45/BKBQ0103.WAV","null","audio-keyboard-response","211","372628","0.0-4.0-0.36"
"null","<p id=""counter"" style=""text-align:center; color:white; font-size:30px"">+</p>","null","html-keyboard-response","212","373131","0.0-4.0-1.36"
"null","sounds/unaltered_45/BKBQ1905.WAV","null","audio-keyboard-response","213","374478","0.0-4.0-0.37"
"null","<p id=""counter"" style=""text-align:center; color:white; font-size:30px"">+</p>","null","html-keyboard-response","214","374981","0.0-4.0-1.37"
"null","sounds/unaltered_45/BKBQ2107.WAV","null","audio-keyboard-response","215","376126","0.0-4.0-0.38"
"null","<p id=""counter"" style=""text-align:center; color:white; font-size:30px"">+</p>","null","html-keyboard-response","216","376628","0.0-4.0-1.38"
"null","sounds/unaltered_45/BKBQ1711.WAV","null","audio-keyboard-response","217","378057","0.0-4.0-0.39"
"null","<p id=""counter"" style=""text-align:center; color:white; font-size:30px"">+</p>","null","html-keyboard-response","218","378559","0.0-4.0-1.39"
"null","sounds/unaltered_45/BKBQ0513.WAV","null","audio-keyboard-response","219","379828","0.0-4.0-0.40"
"null","<p id=""counter"" style=""text-align:center; color:white; font-size:30px"">+</p>","null","html-keyboard-response","220","380330","0.0-4.0-1.40"
"null","sounds/unaltered_45/BKBQ1801.WAV","null","audio-keyboard-response","221","381888","0.0-4.0-0.41"
"null","<p id=""counter"" style=""text-align:center; color:white; font-size:30px"">+</p>","null","html-keyboard-response","222","382389","0.0-4.0-1.41"
"null","sounds/unaltered_45/BKBQ1706.WAV","null","audio-keyboard-response","223","383657","0.0-4.0-0.42"
"null","<p id=""counter"" style=""text-align:center; color:white; font-size:30px"">+</p>","null","html-keyboard-response","224","384159","0.0-4.0-1.42"
"null","sounds/unaltered_45/BKBQ0206.WAV","null","audio-keyboard-response","225","385778","0.0-4.0-0.43"
"null","<p id=""counter"" style=""text-align:center; color:white; font-size:30px"">+</p>","null","html-keyboard-response","226","386280","0.0-4.0-1.43"
"null","sounds/unaltered_45/BKBQ0311.WAV","null","audio-keyboard-response","227","387808","0.0-4.0-0.44"
"null","<p id=""counter"" style=""text-align:center; color:white; font-size:30px"">+</p>","null","html-keyboard-response","228","388310","0.0-4.0-1.44"
"null","sounds/unaltered_45/BKBQ0312.WAV","null","audio-keyboard-response","229","389827","0.0-4.0-0.45"
"null","<p id=""counter"" style=""text-align:center; color:white; font-size:30px"">+</p>","null","html-keyboard-response","230","390329","0.0-4.0-1.45"
"null","sounds/unaltered_45/BKBQ1710.WAV","null","audio-keyboard-response","231","391908","0.0-4.0-0.46"
"null","<p id=""counter"" style=""text-align:center; color:white; font-size:30px"">+</p>","null","html-keyboard-response","232","392411","0.0-4.0-1.46"
"null","sounds/unaltered_45/BKBQ2112.WAV","null","audio-keyboard-response","233","394046","0.0-4.0-0.47"
"null","<p id=""counter"" style=""text-align:center; color:white; font-size:30px"">+</p>","null","html-keyboard-response","234","394548","0.0-4.0-1.47"
"null","sounds/unaltered_45/BKBQ0411.WAV","null","audio-keyboard-response","235","395946","0.0-4.0-0.48"
"null","<p id=""counter"" style=""text-align:center; color:white; font-size:30px"">+</p>","null","html-keyboard-response","236","396447","0.0-4.0-1.48"
"null","sounds/unaltered_45/BKBQ2114.WAV","null","audio-keyboard-response","237","398067","0.0-4.0-0.49"
"null","<p id=""counter"" style=""text-align:center; color:white; font-size:30px"">+</p>","null","html-keyboard-response","238","398569","0.0-4.0-1.49"
"null","sounds/unaltered_45/BKBQ1904.WAV","null","audio-keyboard-response","239","400197","0.0-4.0-0.50"
"null","<p id=""counter"" style=""text-align:center; color:white; font-size:30px"">+</p>","null","html-keyboard-response","240","400698","0.0-4.0-1.50"
"null","sounds/unaltered_45/BKBQ0512.WAV","null","audio-keyboard-response","241","402026","0.0-4.0-0.51"
"null","<p id=""counter"" style=""text-align:center; color:white; font-size:30px"">+</p>","null","html-keyboard-response","242","402527","0.0-4.0-1.51"
"null","sounds/unaltered_45/BKBQ1715.WAV","null","audio-keyboard-response","243","404086","0.0-4.0-0.52"
"null","<p id=""counter"" style=""text-align:center; color:white; font-size:30px"">+</p>","null","html-keyboard-response","244","404588","0.0-4.0-1.52"
"null","sounds/unaltered_45/BKBQ1915.WAV","null","audio-keyboard-response","245","406348","0.0-4.0-0.53"
"null","<p id=""counter"" style=""text-align:center; color:white; font-size:30px"">+</p>","null","html-keyboard-response","246","406851","0.0-4.0-1.53"
"null","sounds/unaltered_45/BKBQ0306.WAV","null","audio-keyboard-response","247","408218","0.0-4.0-0.54"
"null","<p id=""counter"" style=""text-align:center; color:white; font-size:30px"">+</p>","null","html-keyboard-response","248","408720","0.0-4.0-1.54"
"null","sounds/unaltered_45/BKBQ1704.WAV","null","audio-keyboard-response","249","410026","0.0-4.0-0.55"
"null","<p id=""counter"" style=""text-align:center; color:white; font-size:30px"">+</p>","null","html-keyboard-response","250","410528","0.0-4.0-1.55"
"null","sounds/unaltered_45/BKBQ0316.WAV","null","audio-keyboard-response","251","412156","0.0-4.0-0.56"
"null","<p id=""counter"" style=""text-align:center; color:white; font-size:30px"">+</p>","null","html-keyboard-response","252","412658","0.0-4.0-1.56"
"null","sounds/unaltered_45/BKBQ0413.WAV","null","audio-keyboard-response","253","414418","0.0-4.0-0.57"
"null","<p id=""counter"" style=""text-align:center; color:white; font-size:30px"">+</p>","null","html-keyboard-response","254","414920","0.0-4.0-1.57"
"null","sounds/unaltered_45/BKBQ1807.WAV","null","audio-keyboard-response","255","416458","0.0-4.0-0.58"
"null","<p id=""counter"" style=""text-align:center; color:white; font-size:30px"">+</p>","null","html-keyboard-response","256","416961","0.0-4.0-1.58"
"null","sounds/unaltered_45/BKBQ2002.WAV","null","audio-keyboard-response","257","417817","0.0-4.0-0.59"
"null","<p id=""counter"" style=""text-align:center; color:white; font-size:30px"">+</p>","null","html-keyboard-response","258","418319","0.0-4.0-1.59"
"null","sounds/unaltered_45/BKBQ2111.WAV","null","audio-keyboard-response","259","419708","0.0-4.0-0.60"
"null","<p id=""counter"" style=""text-align:center; color:white; font-size:30px"">+</p>","null","html-keyboard-response","260","420210","0.0-4.0-1.60"
"null","sounds/unaltered_45/BKBQ0603.WAV","null","audio-keyboard-response","261","421717","0.0-4.0-0.61"
"null","<p id=""counter"" style=""text-align:center; color:white; font-size:30px"">+</p>","null","html-keyboard-response","262","422219","0.0-4.0-1.61"
"null","sounds/unaltered_45/BKBQ0608.WAV","null","audio-keyboard-response","263","423677","0.0-4.0-0.62"
"null","<p id=""counter"" style=""text-align:center; color:white; font-size:30px"">+</p>","null","html-keyboard-response","264","424179","0.0-4.0-1.62"
"null","sounds/unaltered_45/BKBQ0201.WAV","null","audio-keyboard-response","265","425606","0.0-4.0-0.63"
"null","<p id=""counter"" style=""text-align:center; color:white; font-size:30px"">+</p>","null","html-keyboard-response","266","426109","0.0-4.0-1.63"
"null","sounds/unaltered_45/BKBQ0115.WAV","null","audio-keyboard-response","267","427576","0.0-4.0-0.64"
"null","<p id=""counter"" style=""text-align:center; color:white; font-size:30px"">+</p>","null","html-keyboard-response","268","428077","0.0-4.0-1.64"
"null","sounds/unaltered_45/BKBQ0406.WAV","null","audio-keyboard-response","269","429608","0.0-4.0-0.65"
"null","<p id=""counter"" style=""text-align:center; color:white; font-size:30px"">+</p>","null","html-keyboard-response","270","430110","0.0-4.0-1.65"
"null","sounds/unaltered_45/BKBQ0401.WAV","null","audio-keyboard-response","271","431837","0.0-4.0-0.66"
"null","<p id=""counter"" style=""text-align:center; color:white; font-size:30px"">+</p>","null","html-keyboard-response","272","432338","0.0-4.0-1.66"
"null","sounds/unaltered_45/BKBQ0315.WAV","null","audio-keyboard-response","273","433907","0.0-4.0-0.67"
"null","<p id=""counter"" style=""text-align:center; color:white; font-size:30px"">+</p>","null","html-keyboard-response","274","434411","0.0-4.0-1.67"
"null","sounds/unaltered_45/BKBQ2105.WAV","null","audio-keyboard-response","275","435837","0.0-4.0-0.68"
"null","<p id=""counter"" style=""text-align:center; color:white; font-size:30px"">+</p>","null","html-keyboard-response","276","436340","0.0-4.0-1.68"
"null","sounds/unaltered_45/BKBQ0613.WAV","null","audio-keyboard-response","277","437677","0.0-4.0-0.69"
"null","<p id=""counter"" style=""text-align:center; color:white; font-size:30px"">+</p>","null","html-keyboard-response","278","438179","0.0-4.0-1.69"
"null","sounds/unaltered_45/BKBQ2010.WAV","null","audio-keyboard-response","279","439397","0.0-4.0-0.70"
"null","<p id=""counter"" style=""text-align:center; color:white; font-size:30px"">+</p>","null","html-keyboard-response","280","439899","0.0-4.0-1.70"
"null","sounds/unaltered_45/BKBQ1913.WAV","null","audio-keyboard-response","281","441138","0.0-4.0-0.71"
"null","<p id=""counter"" style=""text-align:center; color:white; font-size:30px"">+</p>","null","html-keyboard-response","282","441640","0.0-4.0-1.71"
"null","sounds/unaltered_45/BKBQ0109.WAV","null","audio-keyboard-response","283","443137","0.0-4.0-0.72"
"null","<p id=""counter"" style=""text-align:center; color:white; font-size:30px"">+</p>","null","html-keyboard-response","284","443640","0.0-4.0-1.72"
"null","sounds/unaltered_45/BKBQ2012.WAV","null","audio-keyboard-response","285","445226","0.0-4.0-0.73"
"null","<p id=""counter"" style=""text-align:center; color:white; font-size:30px"">+</p>","null","html-keyboard-response","286","445726","0.0-4.0-1.73"
"null","sounds/unaltered_45/BKBQ0511.WAV","null","audio-keyboard-response","287","447196","0.0-4.0-0.74"
"null","<p id=""counter"" style=""text-align:center; color:white; font-size:30px"">+</p>","null","html-keyboard-response","288","447697","0.0-4.0-1.74"
"null","sounds/unaltered_45/BKBQ1702.WAV","null","audio-keyboard-response","289","449197","0.0-4.0-0.75"
"null","<p id=""counter"" style=""text-align:center; color:white; font-size:30px"">+</p>","null","html-keyboard-response","290","449699","0.0-4.0-1.75"
"null","sounds/unaltered_45/BKBQ1902.WAV","null","audio-keyboard-response","291","451227","0.0-4.0-0.76"
"null","<p id=""counter"" style=""text-align:center; color:white; font-size:30px"">+</p>","null","html-keyboard-response","292","451730","0.0-4.0-1.76"
"null","sounds/unaltered_45/BKBQ1707.WAV","null","audio-keyboard-response","293","453077","0.0-4.0-0.77"
"null","<p id=""counter"" style=""text-align:center; color:white; font-size:30px"">+</p>","null","html-keyboard-response","294","453580","0.0-4.0-1.77"
"null","sounds/unaltered_45/BKBQ0505.WAV","null","audio-keyboard-response","295","455107","0.0-4.0-0.78"
"null","<p id=""counter"" style=""text-align:center; color:white; font-size:30px"">+</p>","null","html-keyboard-response","296","455610","0.0-4.0-1.78"
"null","sounds/unaltered_45/BKBQ0501.WAV","null","audio-keyboard-response","297","457137","0.0-4.0-0.79"
"null","<p id=""counter"" style=""text-align:center; color:white; font-size:30px"">+</p>","null","html-keyboard-response","298","457639","0.0-4.0-1.79"
"null","sounds/unaltered_45/BKBQ0416.WAV","null","audio-keyboard-response","299","459296","0.0-4.0-0.80"
"null","<p id=""counter"" style=""text-align:center; color:white; font-size:30px"">+</p>","null","html-keyboard-response","300","459799","0.0-4.0-1.80"
"null","sounds/unaltered_45/BKBQ2013.WAV","null","audio-keyboard-response","301","461246","0.0-4.0-0.81"
"null","<p id=""counter"" style=""text-align:center; color:white; font-size:30px"">+</p>","null","html-keyboard-response","302","461749","0.0-4.0-1.81"
"null","sounds/unaltered_45/BKBQ0609.WAV","null","audio-keyboard-response","303","463097","0.0-4.0-0.82"
"null","<p id=""counter"" style=""text-align:center; color:white; font-size:30px"">+</p>","null","html-keyboard-response","304","463600","0.0-4.0-1.82"
"null","sounds/unaltered_45/BKBQ0114.WAV","null","audio-keyboard-response","305","465097","0.0-4.0-0.83"
"null","<p id=""counter"" style=""text-align:center; color:white; font-size:30px"">+</p>","null","html-keyboard-response","306","465600","0.0-4.0-1.83"
"null","sounds/unaltered_45/BKBQ2103.WAV","null","audio-keyboard-response","307","467127","0.0-4.0-0.84"
"null","<p id=""counter"" style=""text-align:center; color:white; font-size:30px"">+</p>","null","html-keyboard-response","308","467628","0.0-4.0-1.84"
"null","sounds/unaltered_45/BKBQ0304.WAV","null","audio-keyboard-response","309","469138","0.0-4.0-0.85"
"null","<p id=""counter"" style=""text-align:center; color:white; font-size:30px"">+</p>","null","html-keyboard-response","310","469639","0.0-4.0-1.85"
"null","sounds/unaltered_45/BKBQ0209.WAV","null","audio-keyboard-response","311","471076","0.0-4.0-0.86"
"null","<p id=""counter"" style=""text-align:center; color:white; font-size:30px"">+</p>","null","html-keyboard-response","312","471578","0.0-4.0-1.86"
"null","sounds/unaltered_45/BKBQ0112.WAV","null","audio-keyboard-response","313","473207","0.0-4.0-0.87"
"null","<p id=""counter"" style=""text-align:center; color:white; font-size:30px"">+</p>","null","html-keyboard-response","314","473709","0.0-4.0-1.87"
"null","sounds/unaltered_45/BKBQ1808.WAV","null","audio-keyboard-response","315","475076","0.0-4.0-0.88"
"null","<p id=""counter"" style=""text-align:center; color:white; font-size:30px"">+</p>","null","html-keyboard-response","316","475577","0.0-4.0-1.88"
"null","sounds/unaltered_45/BKBQ1814.WAV","null","audio-keyboard-response","317","477185","0.0-4.0-0.89"
"null","<p id=""counter"" style=""text-align:center; color:white; font-size:30px"">+</p>","null","html-keyboard-response","318","477687","0.0-4.0-1.89"
"null","<p style=""color:white;"">We will now begin the second test block.</p>","null","html-keyboard-response","319","487690","0.0-5.0"
"null","<p id=""counter"" style=""text-align:center; color:white; font-size:30px"">+</p>","null","html-keyboard-response","320","488691","0.0-6.0-0.0"
"null","sounds/unintel_45/U_BKBQ0309.WAV","null","audio-keyboard-response","321","490357","0.0-6.0-1.0"
"1644.6499999146909","<p style=""color:white;"">Could you hear speech in the audio?</p><p style=""color:white;"">Press ""1"" for YES</p><p style=""color:white;"">Press ""0"" for NO</p>","48","html-keyboard-response","322","492002","0.0-6.0-2.0"
"null","<p id=""counter"" style=""text-align:center; color:white; font-size:30px"">+</p>","null","html-keyboard-response","323","493004","0.0-6.0-0.1"
"null","sounds/unintel_45/U_BKBQ0308.WAV","null","audio-keyboard-response","324","494556","0.0-6.0-1.1"
"1460.7899999246001","<p style=""color:white;"">Could you hear speech in the audio?</p><p style=""color:white;"">Press ""1"" for YES</p><p style=""color:white;"">Press ""0"" for NO</p>","48","html-keyboard-response","325","496018","0.0-6.0-2.1"
"null","<p id=""counter"" style=""text-align:center; color:white; font-size:30px"">+</p>","null","html-keyboard-response","326","497020","0.0-6.0-0.2"
"null","sounds/intel_45/I_BKBQ0215.wav","null","audio-keyboard-response","327","498628","0.0-6.0-1.2"
"589.064999949187","<p style=""color:white;"">Could you hear speech in the audio?</p><p style=""color:white;"">Press ""1"" for YES</p><p style=""color:white;"">Press ""0"" for NO</p>","49","html-keyboard-response","328","499218","0.0-6.0-2.2"
"null","<p id=""counter"" style=""text-align:center; color:white; font-size:30px"">+</p>","null","html-keyboard-response","329","500220","0.0-6.0-0.3"
"null","sounds/unintel_45/U_BKBQ0202.WAV","null","audio-keyboard-response","330","502138","0.0-6.0-1.3"
"1304.7350000124425","<p style=""color:white;"">Could you hear speech in the audio?</p><p style=""color:white;"">Press ""1"" for YES</p><p style=""color:white;"">Press ""0"" for NO</p>","48","html-keyboard-response","331","503444","0.0-6.0-2.3"
"null","<p id=""counter"" style=""text-align:center; color:white; font-size:30px"">+</p>","null","html-keyboard-response","332","504447","0.0-6.0-0.4"
"null","sounds/intel_45/I_BKBQ0512.wav","null","audio-keyboard-response","333","506208","0.0-6.0-1.4"
"1049.6300000231713","<p style=""color:white;"">Could you hear speech in the audio?</p><p style=""color:white;"">Press ""1"" for YES</p><p style=""color:white;"">Press ""0"" for NO</p>","49","html-keyboard-response","334","507259","0.0-6.0-2.4"
"null","<p id=""counter"" style=""text-align:center; color:white; font-size:30px"">+</p>","null","html-keyboard-response","335","508262","0.0-6.0-0.5"
"null","sounds/intel_45/I_BKBQ0511.wav","null","audio-keyboard-response","336","510228","0.0-6.0-1.5"
"349.40499998629093","<p style=""color:white;"">Could you hear speech in the audio?</p><p style=""color:white;"">Press ""1"" for YES</p><p style=""color:white;"">Press ""0"" for NO</p>","49","html-keyboard-response","337","510579","0.0-6.0-2.5"
"null","<p id=""counter"" style=""text-align:center; color:white; font-size:30px"">+</p>","null","html-keyboard-response","338","511580","0.0-6.0-0.6"
"null","sounds/unintel_45/U_BKBQ0416.WAV","null","audio-keyboard-response","339","513468","0.0-6.0-1.6"
"589.2250000033528","<p style=""color:white;"">Could you hear speech in the audio?</p><p style=""color:white;"">Press ""1"" for YES</p><p style=""color:white;"">Press ""0"" for NO</p>","48","html-keyboard-response","340","514058","0.0-6.0-2.6"
"null","<p id=""counter"" style=""text-align:center; color:white; font-size:30px"">+</p>","null","html-keyboard-response","341","515060","0.0-6.0-0.7"
"null","sounds/unintel_45/U_BKBQ0311.WAV","null","audio-keyboard-response","342","516678","0.0-6.0-1.7"
"403.04500004276633","<p style=""color:white;"">Could you hear speech in the audio?</p><p style=""color:white;"">Press ""1"" for YES</p><p style=""color:white;"">Press ""0"" for NO</p>","48","html-keyboard-response","343","517082","0.0-6.0-2.7"
"null","<p id=""counter"" style=""text-align:center; color:white; font-size:30px"">+</p>","null","html-keyboard-response","344","518085","0.0-6.0-0.8"
"null","sounds/unintel_45/U_BKBQ0413.WAV","null","audio-keyboard-response","345","519947","0.0-6.0-1.8"
"391.28000009804964","<p style=""color:white;"">Could you hear speech in the audio?</p><p style=""color:white;"">Press ""1"" for YES</p><p style=""color:white;"">Press ""0"" for NO</p>","48","html-keyboard-response","346","520339","0.0-6.0-2.8"
"null","<p id=""counter"" style=""text-align:center; color:white; font-size:30px"">+</p>","null","html-keyboard-response","347","521341","0.0-6.0-0.9"
"null","sounds/intel_45/I_BKBQ0308.wav","null","audio-keyboard-response","348","523368","0.0-6.0-1.9"
"353.5149998497218","<p style=""color:white;"">Could you hear speech in the audio?</p><p style=""color:white;"">Press ""1"" for YES</p><p style=""color:white;"">Press ""0"" for NO</p>","49","html-keyboard-response","349","523723","0.0-6.0-2.9"
"null","<p id=""counter"" style=""text-align:center; color:white; font-size:30px"">+</p>","null","html-keyboard-response","350","524725","0.0-6.0-0.10"
"null","sounds/intel_45/I_BKBQ0103.wav","null","audio-keyboard-response","351","526758","0.0-6.0-1.10"
"275.16499999910593","<p style=""color:white;"">Could you hear speech in the audio?</p><p style=""color:white;"">Press ""1"" for YES</p><p style=""color:white;"">Press ""0"" for NO</p>","49","html-keyboard-response","352","527034","0.0-6.0-2.10"
"null","<p id=""counter"" style=""text-align:center; color:white; font-size:30px"">+</p>","null","html-keyboard-response","353","528036","0.0-6.0-0.11"
"null","sounds/intel_45/I_BKBQ0109.wav","null","audio-keyboard-response","354","530078","0.0-6.0-1.11"
"771.6149999760091","<p style=""color:white;"">Could you hear speech in the audio?</p><p style=""color:white;"">Press ""1"" for YES</p><p style=""color:white;"">Press ""0"" for NO</p>","49","html-keyboard-response","355","530851","0.0-6.0-2.11"
"null","<p id=""counter"" style=""text-align:center; color:white; font-size:30px"">+</p>","null","html-keyboard-response","356","531855","0.0-6.0-0.12"
"null","sounds/unintel_45/U_BKBQ0412.WAV","null","audio-keyboard-response","357","533566","0.0-6.0-1.12"
"1307.0849999785423","<p style=""color:white;"">Could you hear speech in the audio?</p><p style=""color:white;"">Press ""1"" for YES</p><p style=""color:white;"">Press ""0"" for NO</p>","48","html-keyboard-response","358","534874","0.0-6.0-2.12"
"null","<p id=""counter"" style=""text-align:center; color:white; font-size:30px"">+</p>","null","html-keyboard-response","359","535876","0.0-6.0-0.13"
"null","sounds/intel_45/I_BKBQ0613.wav","null","audio-keyboard-response","360","537638","0.0-6.0-1.13"
"748.7749999854714","<p style=""color:white;"">Could you hear speech in the audio?</p><p style=""color:white;"">Press ""1"" for YES</p><p style=""color:white;"">Press ""0"" for NO</p>","49","html-keyboard-response","361","538388","0.0-6.0-2.13"
"null","<p id=""counter"" style=""text-align:center; color:white; font-size:30px"">+</p>","null","html-keyboard-response","362","539390","0.0-6.0-0.14"
"null","sounds/unintel_45/U_BKBQ0409.WAV","null","audio-keyboard-response","363","541366","0.0-6.0-1.14"
"611.3950000144541","<p style=""color:white;"">Could you hear speech in the audio?</p><p style=""color:white;"">Press ""1"" for YES</p><p style=""color:white;"">Press ""0"" for NO</p>","48","html-keyboard-response","364","541979","0.0-6.0-2.14"
"null","<p id=""counter"" style=""text-align:center; color:white; font-size:30px"">+</p>","null","html-keyboard-response","365","542981","0.0-6.0-0.15"
"null","sounds/intel_45/I_BKBQ0106.wav","null","audio-keyboard-response","366","544868","0.0-6.0-1.15"
"445.63500001095235","<p style=""color:white;"">Could you hear speech in the audio?</p><p style=""color:white;"">Press ""1"" for YES</p><p style=""color:white;"">Press ""0"" for NO</p>","48","html-keyboard-response","367","545314","0.0-6.0-2.15"
"null","<p id=""counter"" style=""text-align:center; color:white; font-size:30px"">+</p>","null","html-keyboard-response","368","546318","0.0-6.0-0.16"
"null","sounds/unintel_45/U_BKBQ0203.WAV","null","audio-keyboard-response","369","548107","0.0-6.0-1.16"
"680.3649999201298","<p style=""color:white;"">Could you hear speech in the audio?</p><p style=""color:white;"">Press ""1"" for YES</p><p style=""color:white;"">Press ""0"" for NO</p>","49","html-keyboard-response","370","548789","0.0-6.0-2.16"
"null","<p id=""counter"" style=""text-align:center; color:white; font-size:30px"">+</p>","null","html-keyboard-response","371","549791","0.0-6.0-0.17"
"null","sounds/unintel_45/U_BKBQ0115.WAV","null","audio-keyboard-response","372","551497","0.0-6.0-1.17"
"375.3100000321865","<p style=""color:white;"">Could you hear speech in the audio?</p><p style=""color:white;"">Press ""1"" for YES</p><p style=""color:white;"">Press ""0"" for NO</p>","49","html-keyboard-response","373","551874","0.0-6.0-2.17"
"null","<p id=""counter"" style=""text-align:center; color:white; font-size:30px"">+</p>","null","html-keyboard-response","374","552876","0.0-6.0-0.18"
"null","sounds/unintel_45/U_BKBQ0607.WAV","null","audio-keyboard-response","375","554678","0.0-6.0-1.18"
"337.59999996982515","<p style=""color:white;"">Could you hear speech in the audio?</p><p style=""color:white;"">Press ""1"" for YES</p><p style=""color:white;"">Press ""0"" for NO</p>","48","html-keyboard-response","376","555017","0.0-6.0-2.18"
"null","<p id=""counter"" style=""text-align:center; color:white; font-size:30px"">+</p>","null","html-keyboard-response","377","556019","0.0-6.0-0.19"
"null","sounds/unintel_45/U_BKBQ0513.WAV","null","audio-keyboard-response","378","557747","0.0-6.0-1.19"
"678.2100000418723","<p style=""color:white;"">Could you hear speech in the audio?</p><p style=""color:white;"">Press ""1"" for YES</p><p style=""color:white;"">Press ""0"" for NO</p>","48","html-keyboard-response","379","558426","0.0-6.0-2.19"
"null","<p id=""counter"" style=""text-align:center; color:white; font-size:30px"">+</p>","null","html-keyboard-response","380","559429","0.0-6.0-0.20"
"null","sounds/unintel_45/U_BKBQ0205.WAV","null","audio-keyboard-response","381","561006","0.0-6.0-1.20"
"522.690000012517","<p style=""color:white;"">Could you hear speech in the audio?</p><p style=""color:white;"">Press ""1"" for YES</p><p style=""color:white;"">Press ""0"" for NO</p>","48","html-keyboard-response","382","561530","0.0-6.0-2.20"
"null","<p id=""counter"" style=""text-align:center; color:white; font-size:30px"">+</p>","null","html-keyboard-response","383","562531","0.0-6.0-0.21"
"null","sounds/intel_45/I_BKBQ0214.wav","null","audio-keyboard-response","384","564428","0.0-6.0-1.21"
"2014.0400000382215","<p style=""color:white;"">Could you hear speech in the audio?</p><p style=""color:white;"">Press ""1"" for YES</p><p style=""color:white;"">Press ""0"" for NO</p>","49","html-keyboard-response","385","566443","0.0-6.0-2.21"
"null","<p id=""counter"" style=""text-align:center; color:white; font-size:30px"">+</p>","null","html-keyboard-response","386","567445","0.0-6.0-0.22"
"null","sounds/intel_45/I_BKBQ0202.wav","null","audio-keyboard-response","387","569278","0.0-6.0-1.22"
"206.41999994404614","<p style=""color:white;"">Could you hear speech in the audio?</p><p style=""color:white;"">Press ""1"" for YES</p><p style=""color:white;"">Press ""0"" for NO</p>","49","html-keyboard-response","388","569489","0.0-6.0-2.22"
"null","<p id=""counter"" style=""text-align:center; color:white; font-size:30px"">+</p>","null","html-keyboard-response","389","570491","0.0-6.0-0.23"
"null","sounds/unintel_45/U_BKBQ0307.WAV","null","audio-keyboard-response","390","572467","0.0-6.0-1.23"
"446.7100000474602","<p style=""color:white;"">Could you hear speech in the audio?</p><p style=""color:white;"">Press ""1"" for YES</p><p style=""color:white;"">Press ""0"" for NO</p>","48","html-keyboard-response","391","572915","0.0-6.0-2.23"
"null","<p id=""counter"" style=""text-align:center; color:white; font-size:30px"">+</p>","null","html-keyboard-response","392","573917","0.0-6.0-0.24"
"null","sounds/unintel_45/U_BKBQ0316.WAV","null","audio-keyboard-response","393","575607","0.0-6.0-1.24"
"369.5749999023974","<p style=""color:white;"">Could you hear speech in the audio?</p><p style=""color:white;"">Press ""1"" for YES</p><p style=""color:white;"">Press ""0"" for NO</p>","48","html-keyboard-response","394","575978","0.0-6.0-2.24"
"null","<p id=""counter"" style=""text-align:center; color:white; font-size:30px"">+</p>","null","html-keyboard-response","395","576981","0.0-6.0-0.25"
"null","sounds/unintel_45/U_BKBQ0201.WAV","null","audio-keyboard-response","396","578566","0.0-6.0-1.25"
"379.8499999102205","<p style=""color:white;"">Could you hear speech in the audio?</p><p style=""color:white;"">Press ""1"" for YES</p><p style=""color:white;"">Press ""0"" for NO</p>","48","html-keyboard-response","397","578947","0.0-6.0-2.25"
"null","<p id=""counter"" style=""text-align:center; color:white; font-size:30px"">+</p>","null","html-keyboard-response","398","579948","0.0-6.0-0.26"
"null","sounds/unintel_45/U_BKBQ0103.WAV","null","audio-keyboard-response","399","581818","0.0-6.0-1.26"
"447.5050000473857","<p style=""color:white;"">Could you hear speech in the audio?</p><p style=""color:white;"">Press ""1"" for YES</p><p style=""color:white;"">Press ""0"" for NO</p>","48","html-keyboard-response","400","582266","0.0-6.0-2.26"
"null","<p id=""counter"" style=""text-align:center; color:white; font-size:30px"">+</p>","null","html-keyboard-response","401","583269","0.0-6.0-0.27"
"null","sounds/unintel_45/U_BKBQ0603.WAV","null","audio-keyboard-response","402","585317","0.0-6.0-1.27"
"317.3050000332296","<p style=""color:white;"">Could you hear speech in the audio?</p><p style=""color:white;"">Press ""1"" for YES</p><p style=""color:white;"">Press ""0"" for NO</p>","48","html-keyboard-response","403","585636","0.0-6.0-2.27"
"null","<p id=""counter"" style=""text-align:center; color:white; font-size:30px"">+</p>","null","html-keyboard-response","404","586638","0.0-6.0-0.28"
"null","sounds/unintel_45/U_BKBQ0215.WAV","null","audio-keyboard-response","405","588387","0.0-6.0-1.28"
"373.56500001624227","<p style=""color:white;"">Could you hear speech in the audio?</p><p style=""color:white;"">Press ""1"" for YES</p><p style=""color:white;"">Press ""0"" for NO</p>","48","html-keyboard-response","406","588762","0.0-6.0-2.28"
"null","<p id=""counter"" style=""text-align:center; color:white; font-size:30px"">+</p>","null","html-keyboard-response","407","589765","0.0-6.0-0.29"
"null","sounds/intel_45/I_BKBQ0112.wav","null","audio-keyboard-response","408","591947","0.0-6.0-1.29"
"358.63000014796853","<p style=""color:white;"">Could you hear speech in the audio?</p><p style=""color:white;"">Press ""1"" for YES</p><p style=""color:white;"">Press ""0"" for NO</p>","49","html-keyboard-response","409","592307","0.0-6.0-2.29"
"null","<p id=""counter"" style=""text-align:center; color:white; font-size:30px"">+</p>","null","html-keyboard-response","410","593309","0.0-6.0-0.30"
"null","sounds/intel_45/I_BKBQ0409.wav","null","audio-keyboard-response","411","595127","0.0-6.0-1.30"
"377.3700001183897","<p style=""color:white;"">Could you hear speech in the audio?</p><p style=""color:white;"">Press ""1"" for YES</p><p style=""color:white;"">Press ""0"" for NO</p>","49","html-keyboard-response","412","595506","0.0-6.0-2.30"
"null","<p id=""counter"" style=""text-align:center; color:white; font-size:30px"">+</p>","null","html-keyboard-response","413","596507","0.0-6.0-0.31"
"null","sounds/unintel_45/U_BKBQ0106.WAV","null","audio-keyboard-response","414","598517","0.0-6.0-1.31"
"339.9999998509884","<p style=""color:white;"">Could you hear speech in the audio?</p><p style=""color:white;"">Press ""1"" for YES</p><p style=""color:white;"">Press ""0"" for NO</p>","48","html-keyboard-response","415","598858","0.0-6.0-2.31"
"null","<p id=""counter"" style=""text-align:center; color:white; font-size:30px"">+</p>","null","html-keyboard-response","416","599859","0.0-6.0-0.32"
"null","sounds/unintel_45/U_BKBQ0102.WAV","null","audio-keyboard-response","417","601708","0.0-6.0-1.32"
"741.3999999407679","<p style=""color:white;"">Could you hear speech in the audio?</p><p style=""color:white;"">Press ""1"" for YES</p><p style=""color:white;"">Press ""0"" for NO</p>","48","html-keyboard-response","418","602450","0.0-6.0-2.32"
"null","<p id=""counter"" style=""text-align:center; color:white; font-size:30px"">+</p>","null","html-keyboard-response","419","603452","0.0-6.0-0.33"
"null","sounds/unintel_45/U_BKBQ0406.WAV","null","audio-keyboard-response","420","605006","0.0-6.0-1.33"
"371.89999991096556","<p style=""color:white;"">Could you hear speech in the audio?</p><p style=""color:white;"">Press ""1"" for YES</p><p style=""color:white;"">Press ""0"" for NO</p>","48","html-keyboard-response","421","605379","0.0-6.0-2.33"
"null","<p id=""counter"" style=""text-align:center; color:white; font-size:30px"">+</p>","null","html-keyboard-response","422","606381","0.0-6.0-0.34"
"null","sounds/intel_45/I_BKBQ0416.wav","null","audio-keyboard-response","423","608629","0.0-6.0-1.34"
"404.6000000089407","<p style=""color:white;"">Could you hear speech in the audio?</p><p style=""color:white;"">Press ""1"" for YES</p><p style=""color:white;"">Press ""0"" for NO</p>","49","html-keyboard-response","424","609034","0.0-6.0-2.34"
"null","<p id=""counter"" style=""text-align:center; color:white; font-size:30px"">+</p>","null","html-keyboard-response","425","610036","0.0-6.0-0.35"
"null","sounds/intel_45/I_BKBQ0316.wav","null","audio-keyboard-response","426","612218","0.0-6.0-1.35"
"286.5849998779595","<p style=""color:white;"">Could you hear speech in the audio?</p><p style=""color:white;"">Press ""1"" for YES</p><p style=""color:white;"">Press ""0"" for NO</p>","48","html-keyboard-response","427","612506","0.0-6.0-2.35"
"null","<p id=""counter"" style=""text-align:center; color:white; font-size:30px"">+</p>","null","html-keyboard-response","428","613508","0.0-6.0-0.36"
"null","sounds/unintel_45/U_BKBQ0514.WAV","null","audio-keyboard-response","429","615417","0.0-6.0-1.36"
"912.1499999891967","<p style=""color:white;"">Could you hear speech in the audio?</p><p style=""color:white;"">Press ""1"" for YES</p><p style=""color:white;"">Press ""0"" for NO</p>","48","html-keyboard-response","430","616331","0.0-6.0-2.36"
"null","<p id=""counter"" style=""text-align:center; color:white; font-size:30px"">+</p>","null","html-keyboard-response","431","617333","0.0-6.0-0.37"
"null","sounds/intel_45/I_BKBQ0315.wav","null","audio-keyboard-response","432","619438","0.0-6.0-1.37"
"428.3649998251349","<p style=""color:white;"">Could you hear speech in the audio?</p><p style=""color:white;"">Press ""1"" for YES</p><p style=""color:white;"">Press ""0"" for NO</p>","49","html-keyboard-response","433","619868","0.0-6.0-2.37"
"null","<p id=""counter"" style=""text-align:center; color:white; font-size:30px"">+</p>","null","html-keyboard-response","434","620871","0.0-6.0-0.38"
"null","sounds/unintel_45/U_BKBQ0112.WAV","null","audio-keyboard-response","435","622577","0.0-6.0-1.38"
"456.2800000421703","<p style=""color:white;"">Could you hear speech in the audio?</p><p style=""color:white;"">Press ""1"" for YES</p><p style=""color:white;"">Press ""0"" for NO</p>","48","html-keyboard-response","436","623034","0.0-6.0-2.38"
"null","<p id=""counter"" style=""text-align:center; color:white; font-size:30px"">+</p>","null","html-keyboard-response","437","624036","0.0-6.0-0.39"
"null","sounds/intel_45/I_BKBQ0514.wav","null","audio-keyboard-response","438","626348","0.0-6.0-1.39"
"349.1049997974187","<p style=""color:white;"">Could you hear speech in the audio?</p><p style=""color:white;"">Press ""1"" for YES</p><p style=""color:white;"">Press ""0"" for NO</p>","49","html-keyboard-response","439","626699","0.0-6.0-2.39"
"null","<p id=""counter"" style=""text-align:center; color:white; font-size:30px"">+</p>","null","html-keyboard-response","440","627701","0.0-6.0-0.40"
"null","sounds/intel_45/I_BKBQ0609.wav","null","audio-keyboard-response","441","629517","0.0-6.0-1.40"
"1524.9150001909584","<p style=""color:white;"">Could you hear speech in the audio?</p><p style=""color:white;"">Press ""1"" for YES</p><p style=""color:white;"">Press ""0"" for NO</p>","49","html-keyboard-response","442","631042","0.0-6.0-2.40"
"null","<p id=""counter"" style=""text-align:center; color:white; font-size:30px"">+</p>","null","html-keyboard-response","443","632043","0.0-6.0-0.41"
"null","sounds/intel_45/I_BKBQ0307.wav","null","audio-keyboard-response","444","634428","0.0-6.0-1.41"
"358.9199997950345","<p style=""color:white;"">Could you hear speech in the audio?</p><p style=""color:white;"">Press ""1"" for YES</p><p style=""color:white;"">Press ""0"" for NO</p>","49","html-keyboard-response","445","634788","0.0-6.0-2.41"
"null","<p id=""counter"" style=""text-align:center; color:white; font-size:30px"">+</p>","null","html-keyboard-response","446","635791","0.0-6.0-0.42"
"null","sounds/intel_45/I_BKBQ0102.wav","null","audio-keyboard-response","447","637757","0.0-6.0-1.42"
"389.85999999567866","<p style=""color:white;"">Could you hear speech in the audio?</p><p style=""color:white;"">Press ""1"" for YES</p><p style=""color:white;"">Press ""0"" for NO</p>","48","html-keyboard-response","448","638147","0.0-6.0-2.42"
"null","<p id=""counter"" style=""text-align:center; color:white; font-size:30px"">+</p>","null","html-keyboard-response","449","639149","0.0-6.0-0.43"
"null","sounds/intel_45/I_BKBQ0306.wav","null","audio-keyboard-response","450","640968","0.0-6.0-1.43"
"138.9999999664724","<p style=""color:white;"">Could you hear speech in the audio?</p><p style=""color:white;"">Press ""1"" for YES</p><p style=""color:white;"">Press ""0"" for NO</p>","49","html-keyboard-response","451","641108","0.0-6.0-2.43"
"null","<p id=""counter"" style=""text-align:center; color:white; font-size:30px"">+</p>","null","html-keyboard-response","452","642110","0.0-6.0-0.44"
"null","sounds/intel_45/I_BKBQ0411.wav","null","audio-keyboard-response","453","643996","0.0-6.0-1.44"
"285.96000000834465","<p style=""color:white;"">Could you hear speech in the audio?</p><p style=""color:white;"">Press ""1"" for YES</p><p style=""color:white;"">Press ""0"" for NO</p>","49","html-keyboard-response","454","644283","0.0-6.0-2.44"
"null","<p id=""counter"" style=""text-align:center; color:white; font-size:30px"">This is the end of the experiment.</p>","null","html-keyboard-response","455","644786","0.0-7.0-0.0"
